time_s,featherweight_source_time_s,marv_source_time_s,featherweight_navigation_unix_time_s,featherweight_navigation_gps_altitude_asl_m,featherweight_navigation_gps_altitude_agl_m,featherweight_navigation_latitude_deg,featherweight_navigation_longitude_deg,featherweight_navigation_satellite_count,featherweight_navigation_fix_type,featherweight_navigation_horizontal_speed_mps,featherweight_navigation_vertical_speed_mps,featherweight_navigation_course_heading_deg,featherweight_navigation_battery_v,featherweight_navigation_distance_ft,featherweight_navigation_distance_m,featherweight_navigation_flags,featherweight_navigation_rssi_dbm,featherweight_navigation_count_gt_40,featherweight_navigation_count_gt_32,featherweight_navigation_count_gt_24,featherweight_events_launch_detected,featherweight_events_apogee_detected,featherweight_events_landing_detected,marv_baro_log_time_s,marv_baro_sample_time_us,marv_baro_log_time_us,marv_baro_lagged,marv_baro_pressure_pa,marv_baro_temperature_c,marv_primary_imu_log_time_s,marv_primary_imu_sample_time_us,marv_primary_imu_log_time_us,marv_primary_imu_lagged,marv_primary_imu_accelerometer_x_mps2,marv_primary_imu_accelerometer_y_mps2,marv_primary_imu_accelerometer_z_mps2,marv_primary_imu_gyroscope_x_rad_s,marv_primary_imu_gyroscope_y_rad_s,marv_primary_imu_gyroscope_z_rad_s,marv_aux_imu_log_time_s,marv_aux_imu_sample_time_us,marv_aux_imu_log_time_us,marv_aux_imu_lagged,marv_aux_imu_accelerometer_x_mps2,marv_aux_imu_accelerometer_y_mps2,marv_aux_imu_accelerometer_z_mps2,marv_aux_imu_gyroscope_x_rad_s,marv_aux_imu_gyroscope_y_rad_s,marv_aux_imu_gyroscope_z_rad_s
0.057055,2.2220548092651375,0.057055,1774896432.6220548,415.25952000000007,0.12192000000000001,33.49817,-99.33435,27.0,3.0,0.0,0.0,-109.09555994478092,4.046,0.0,0.0,True,-56.0,2.0,14.0,7.0,False,False,False,0.05895191075735649,1122218093.0,1122219989.9107573,False,97120.0,24.990543174143752,0.057783,1122218093.0,1122218821.0,False,0.41130456,-0.67532974,9.522868,0.051082812,0.023412954,0.03618366,0.05754427788178658,1122218093.0,1122218582.2778819,False,0.667759447863065,-0.09230830075153784,9.84853929687082,-0.004968283576892217,-0.008335149813452796,0.014715007043861996
0.067809,2.2328088092651375,0.067809,1774896432.632809,415.25952000000007,0.12192000000000001,33.49817,-99.33435,27.0,3.0,0.0,0.0,-88.66298917380787,4.046,0.0,0.0,True,-56.0,2.0,14.0,7.0,False,False,False,0.07011573516642546,1122228847.0,1122231153.7351663,False,97120.0,24.99573082489146,0.068536,1122228847.0,1122229574.0,False,0.45081854,-0.6879024,9.634226,-0.017027603,-0.008513802,-0.04469746,0.06872063887622,1122228847.0,1122229758.6388762,False,0.5884702650077533,-0.07698066033704276,9.782515533795495,-0.007330383,0.002380608131077262,0.018325957
0.078791,2.2437908092651373,0.078791,1774896432.643791,415.25952000000007,0.12192000000000001,33.49817,-99.33435,27.0,3.0,0.0,0.0,-67.7972190225315,4.046,0.0,0.0,True,-56.0,2.0,14.0,7.0,False,False,False,0.08151297487679969,1122239829.0,1122242550.9748769,False,97119.79398975747,24.998969948787323,0.079303,1122239829.0,1122240341.0,False,0.3179079,-0.66275716,9.616265,-0.031926755,-0.093651816,0.019156054,0.07951403950499762,1122239829.0,1122240552.039505,False,0.5787801584892908,-0.1006871513355545,9.820898402189435,-0.007402605231032841,-0.0011735823394098052,0.018398179250737744
0.088891,2.2538908092651373,0.088891,1774896432.6538908,415.25952000000007,0.12192000000000001,33.49817,-99.33435,27.0,3.0,0.0,0.0,-48.607246474007425,4.046,0.0,0.0,True,-56.0,2.0,14.0,7.0,False,False,False,0.09198236805488452,1122249929.0,1122253020.3680549,False,97118.81805005315,24.994090250265725,0.090013,1122249929.0,1122251051.0,False,0.2819861,-0.6465923,9.612673,0.102165624,0.034055207,-0.03618366,0.08981113612565444,1122249929.0,1122250849.1361256,False,0.5649767514450262,-0.10988943872251308,9.857707397905758,-0.010926491865968585,0.0011756757376963343,0.02192206684712042
0.10003,2.2650298092651373,0.10003,1774896432.66503,415.25952000000007,0.12192000000000001,33.49817,-99.33435,27.0,3.0,0.0,0.0,-27.44317674945202,4.046,0.0,0.0,True,-56.0,2.0,14.0,7.0,False,False,False,0.10356140616301215,1122261068.0,1122264599.406163,False,97118.26107339942,24.992610733994237,0.100758,1122261068.0,1122261796.0,False,0.3699945,-0.68251413,9.589323,0.04044056,-0.019156054,0.010642252,0.10056321493314188,1122261068.0,1122261601.2149332,False,0.5835016843758413,-0.1147687260486404,9.863127748586557,-0.006197242283254064,0.0012217305,0.020791567469981155
0.110724,2.2757238092651373,0.110724,1774896432.6757238,415.25952000000007,0.12192000000000001,33.49817,-99.33435,27.0,3.0,0.0,0.0,-7.124605815400884,4.046,0.0,0.0,True,-56.0,2.0,14.0,7.0,False,False,False,0.11477712838794746,1122271762.0,1122275815.128388,False,97119.30556233824,25.00305562338233,0.111484,1122271762.0,1122272522.0,False,0.32509226,-0.6106705,9.504908,-0.031926755,0.04044056,0.076624215,0.1116763828125,1122271762.0,1122272714.3828125,False,0.5603487208757268,-0.04384160643531978,9.839030066042879,-0.006130516484947311,-0.0012654588645258,0.020791284154523984
0.121723,2.2867228092651373,0.121723,1774896432.686723,415.25952000000007,0.12192000000000001,33.49817,-99.33435,27.0,3.0,0.0,0.0,13.773464289670045,4.046,0.0,0.0,True,-56.0,2.0,14.0,7.0,False,False,False,0.12625730367979965,1122282761.0,1122287295.3036797,False,97119.25074655621,25.01,0.122234,1122282761.0,1122283272.0,False,0.3017431,-0.7130477,9.5857315,0.070238866,-0.04044056,0.029798307,0.1224262967336444,1122282761.0,1122283464.2967336,False,0.5835916676030855,-0.0869983928166841,9.824844315969909,-0.007330383,-0.003599573466412725,0.021925530859251502
0.131843,2.2968428092651374,0.131843,1774896432.696843,415.25952000000007,0.12192000000000001,33.49817,-99.33435,27.0,3.0,0.0,0.0,33.00143678383472,4.046,0.0,0.0,True,-56.0,2.0,14.0,7.0,False,False,False,0.13672679024178788,1122292881.0,1122297764.7902417,False,97117.30103072921,25.01,0.132975,1122292881.0,1122294013.0,False,0.30713135,-0.6645532,9.589323,-0.10642252,-0.12983547,-0.07875267,0.13277758899152464,1122292881.0,1122293815.5889916,False,0.5697556683649176,-0.13311850656585086,9.820231962860682,-0.007330383,-6.736329671459861e-05,0.01839332030406628
0.143003,2.3080028092651377,0.143003,1774896432.7080028,415.25952000000007,0.12192000000000001,33.49817,-99.33435,27.0,3.0,0.0,0.0,39.56020052066858,4.046,0.0,0.0,True,-56.0,2.0,14.0,7.0,False,False,False,0.14809778565482798,1122304041.0,1122309135.7856548,False,97117.22280799111,25.005923973362933,0.143713,1122304041.0,1122304751.0,False,0.27480173,-0.7058633,9.549809,0.102165624,-0.06385351,0.023412954,0.14352068335273574,1122304041.0,1122304558.6833527,False,0.5459921519835229,-0.10109852349332858,9.900042921106833,-0.008530232903913314,-0.0011998494128682721,0.013526559348526913
0.153717,2.3187168092651373,0.153717,1774896432.7187169,415.25952000000007,0.12192000000000001,33.49817,-99.33435,27.0,3.0,0.0,0.0,40.31018123590592,4.046,0.0,0.0,True,-56.0,2.0,14.0,7.0,False,False,False,0.1587577796429893,1122314755.0,1122319795.779643,False,97120.19561598224,24.996014613392525,0.154459,1122314755.0,1122315497.0,False,0.37897494,-0.6735337,9.542625,-0.093651816,0.0021284504,-0.10855097,0.154647843994185,1122314755.0,1122315685.8439941,False,0.6074412585335273,-0.14684443019180446,9.829380310467018,-0.007416079524259494,0.0048654978706887154,0.02061945105624205
0.16472,2.3297198092651374,0.16472,1774896432.7297199,415.25952000000007,0.12192000000000001,33.49817,-99.33435,27.0,3.0,0.0,0.0,41.08039197043612,4.046,0.0,0.0,True,-56.0,2.0,14.0,7.0,False,False,False,0.1693925342886387,1122325758.0,1122330430.5342886,False,97121.42425793245,24.99,0.165228,1122325758.0,1122326266.0,False,0.35742188,-0.6573689,9.587527,0.12983547,0.12132168,0.0063853515,0.16541582495042367,1122325758.0,1122326453.8249505,False,0.5867493021723454,-0.062213387,9.81131063295475,-0.012154533565891473,0.003686115412511267,0.012280076434108526
0.175426,2.3404258092651373,0.175426,1774896432.7404258,415.25952000000007,0.12192000000000001,33.49817,-99.33435,27.0,3.0,0.0,0.0,41.82981268513941,4.046,0.0,0.0,True,-56.0,2.0,14.0,7.0,False,False,False,0.1793004240873422,1122336464.0,1122340338.4240873,False,97120.05450358239,24.99,0.176195,1122336464.0,1122337233.0,False,0.25324866,-0.6519806,9.560586,0.07449576,0.2149735,0.14686307,0.17599926663061113,1122336464.0,1122337037.2666306,False,0.48052900036776636,-0.062213387,9.852874308815576,-0.008617528441860466,0.004865117184856679,0.01581708155813953
0.186056,2.3510558092651372,0.186056,1774896432.751056,415.25952000000007,0.12192000000000001,33.49817,-99.33435,27.0,3.0,0.0,0.0,42.57391339476914,4.046,0.0,0.0,True,-56.0,2.0,14.0,7.0,False,False,False,0.18928918952744675,1122347094.0,1122350327.1895275,False,97119.0,24.99,0.186928,1122347094.0,1122347966.0,False,0.3161118,-0.61246663,9.55879,-0.05321126,-0.021284504,0.093651816,0.186724119428249,1122347094.0,1122347762.1194282,False,0.5630698318469061,-0.09507656397348126,9.764443219672748,-0.008552114,-0.0023042154323866786,0.014683973585104383
0.196695,2.3616948092651375,0.196695,1774896432.761695,415.25952000000007,0.12192000000000001,33.49817,-99.33435,27.0,3.0,0.0,0.0,43.31864410499969,4.046,0.0,0.0,True,-56.0,2.0,14.0,7.0,False,False,False,0.19980874370772558,1122357733.0,1122360846.7437077,False,97119.0,24.99,0.197652,1122357733.0,1122358690.0,False,0.36281013,-0.64479625,9.594711,0.06385351,0.03618366,-0.20645969,0.19783941160021648,1122357733.0,1122358877.4116,False,0.5461468036604727,-0.029713649449576034,9.844738534187265,-0.010910495893550424,-4.253905583618957e-05,0.01708295746337723
0.207784,2.3727838092651377,0.207784,1774896432.772784,415.25952000000007,0.12192000000000001,33.49817,-99.33435,27.0,3.0,0.0,0.0,44.094874845271015,4.046,0.0,0.0,True,-56.0,2.0,14.0,7.0,False,False,False,0.2108277887807401,1122368822.0,1122371865.7887807,False,97119.22410307049,24.991120515352424,0.208417,1122368822.0,1122369455.0,False,0.3143157,-0.58732134,9.60908,-0.027669856,-0.0021284504,-0.068110414,0.20861189674264094,1122368822.0,1122369649.8967426,False,0.57906306,-0.084583642692258,9.88149244938636,-0.006174941639595829,-0.0023108823280428153,0.015948785345021685
0.21823,2.3832298092651376,0.21823,1774896432.7832298,415.25952000000007,0.12192000000000001,33.49817,-99.33435,27.0,3.0,0.0,0.0,44.826095542617416,4.046,0.0,0.0,True,-56.0,2.0,14.0,7.0,False,False,False,0.22139560229463487,1122379268.0,1122382433.6022947,False,97120.20647011802,24.996032350590117,0.219193,1122379268.0,1122380231.0,False,0.3879554,-0.5657683,9.542625,0.11493632,-0.085138015,-0.012770703,0.21899909762849498,1122379268.0,1122380037.0976286,False,0.57906306,-0.0015500244643351507,9.835362134539078,-0.009707892871320477,0.004755019749838516,0.019481736865922302
0.229058,2.3940578092651377,0.229058,1774896432.7940578,415.25952000000007,0.12192000000000001,33.49817,-99.33435,27.0,3.0,0.0,0.0,45.58405626546509,4.046,0.0,0.0,True,-56.0,2.0,14.0,7.0,False,False,False,0.2324353601442917,1122390096.0,1122393473.3601444,False,97121.0,24.998834941990836,0.229932,1122390096.0,1122390970.0,False,0.2640252,-0.6430001,9.589323,-0.08939492,-0.05321126,0.017027603,0.22972790054433068,1122390096.0,1122390765.9005444,False,0.5508949588781252,-0.06572568373373937,9.792248583448657,-0.009773844,0.004886922,0.02434173188098534
0.239654,2.4046538092651373,0.239654,1774896432.804654,415.25952000000007,0.12192000000000001,33.49817,-99.33435,27.0,3.0,0.0,0.0,44.60381630237132,4.046,0.0,0.0,True,-56.0,2.0,14.0,7.0,False,False,False,0.24353393926099248,1122400692.0,1122404571.939261,False,97121.0,24.99366968899288,0.240656,1122400692.0,1122401694.0,False,0.2640252,-0.62683535,9.51748,0.042569008,0.10429407,0.08939492,0.24084058073833378,1122400692.0,1122401878.5807383,False,0.5740312444209766,-0.038285162,9.819897783734994,-0.008552114,0.002443461,0.02687807
0.250742,2.4157418092651373,0.250742,1774896432.815742,415.25952000000007,0.12192000000000001,33.49817,-99.33435,27.0,3.0,0.0,0.0,41.27742106081788,4.046,0.0,0.0,True,-56.0,2.0,14.0,7.0,False,False,False,0.25512138622624175,1122411780.0,1122416159.3862262,False,97120.82782802147,24.993443439570537,0.251419,1122411780.0,1122412457.0,False,0.299947,-0.6322236,9.530052,0.008513802,0.025541406,0.014899153,0.2516129759297801,1122411780.0,1122412650.9759297,False,0.5600066772102072,-0.03931928758610083,9.805700834494615,-0.008574114205411276,0.0024654612162157276,0.02687807
0.261781,2.4267808092651375,0.261781,1774896432.8267808,415.25952000000007,0.12192000000000001,33.49817,-99.33435,27.0,3.0,0.0,0.0,37.965725798235965,4.046,0.0,0.0,True,-56.0,2.0,14.0,7.0,False,False,False,0.26660190351598395,1122422819.0,1122427639.903516,False,97120.29394979929,25.004121004014124,0.262191,1122422819.0,1122423229.0,False,0.22630732,-0.64838845,9.537237,0.010642252,-0.12983547,0.04895436,0.2623807762647754,1122422819.0,1122423418.7762647,False,0.5644522736718677,-0.0944435260074705,9.801255860236408,-0.009817052246524821,0.0036219833517068577,0.026791653524633575
0.271973,2.4369728092651375,0.271973,1774896432.836973,415.25952000000007,0.12192000000000001,33.49817,-99.33435,27.0,3.0,0.0,0.0,34.90813017216158,4.046,0.0,0.0,True,-56.0,2.0,14.0,7.0,False,False,False,0.2770412214552239,1122433011.0,1122438079.2214553,False,97120.0,25.006162313432835,0.272923,1122433011.0,1122433961.0,False,0.3143157,-0.6537767,9.560586,-0.019156054,-0.08300956,-0.10855097,0.27272409011820337,1122433011.0,1122433762.0901182,False,0.5506153349749409,-0.025258704339763405,9.815091921891252,-0.012172017212198587,0.0012670182896548404,0.022081724557068548
0.282665,2.4476648092651376,0.282665,1774896432.8476648,415.25952000000007,0.12192000000000001,33.49817,-99.33435,27.0,3.0,0.0,0.0,31.70053476066363,4.046,0.0,0.0,True,-56.0,2.0,14.0,7.0,False,False,False,0.28774419272388063,1122443703.0,1122448782.192724,False,97120.0,24.99618843283582,0.283653,1122443703.0,1122444691.0,False,0.28737438,-0.57474875,9.490539,-0.05321126,0.08300956,0.06385351,0.2838342212437585,1122443703.0,1122444872.2212439,False,0.5480865394462094,-0.06197095490394914,9.847969083794824,-0.012134784120108932,0.0012011002800272335,0.023150989331638668
0.293688,2.4586878092651374,0.293688,1774896432.8586879,415.25952000000007,0.12192000000000001,33.49817,-99.33435,27.0,3.0,0.0,0.0,28.393639491215254,4.046,0.0,0.0,True,-56.0,2.0,14.0,7.0,False,False,False,0.2987930585516179,1122454726.0,1122459831.0585515,False,97119.79506933744,24.99,0.294385,1122454726.0,1122455423.0,False,0.17781289,-0.6322236,9.603692,0.0,-0.014899153,0.06598196,0.29458021567527126,1122454726.0,1122455618.2156754,False,0.417740463234194,-0.04768278858211745,9.798560475121587,-0.0074412208683127725,8.867030190798085e-05,0.019547688
0.303982,2.4689818092651374,0.303982,1774896432.8689818,415.25952000000007,0.12192000000000001,33.49817,-99.33435,27.0,3.0,0.0,0.0,25.30544390891448,4.046,0.0,0.0,True,-56.0,2.0,14.0,7.0,False,False,False,0.3091317586496708,1122465020.0,1122470169.7586496,False,97119.31442312182,24.99,0.305144,1122465020.0,1122466182.0,False,0.299947,-0.5819331,9.569567,-0.019156054,-0.0021284504,0.12557858,0.30493872166105496,1122465020.0,1122465976.721661,False,0.4914605321661052,-0.03846777924354661,9.922962675645342,-0.013322483839506152,0.0047936810639730475,0.019547688
0.314834,2.4798338092651373,0.314834,1774896432.879834,415.25952000000007,0.12192000000000001,33.49817,-99.33435,27.0,3.0,0.0,0.0,22.049848566080968,4.046,0.0,0.0,True,-56.0,2.0,14.0,7.0,False,False,False,0.3196285744411106,1122475872.0,1122480666.5744412,False,97119.34805392385,24.993480539238472,0.315895,1122475872.0,1122476933.0,False,0.22091904,-0.71484375,9.639614,-0.05746816,0.014899153,0.023412954,0.31569776122430165,1122475872.0,1122476735.7612243,False,0.5258064147257306,-0.05707654860864754,9.897240789527057,-0.01104040194680557,8.96558936111392e-05,0.012351788840416707
0.325659,2.4906588092651374,0.325659,1774896432.8906589,415.25952000000007,0.12192000000000001,33.49817,-99.33435,27.0,3.0,0.0,0.0,18.802353211660343,4.046,0.0,0.0,True,-56.0,2.0,14.0,7.0,False,False,False,0.3294430337235346,1122486697.0,1122490481.0337236,False,97120.26298440603,25.002629844060348,0.326626,1122486697.0,1122487664.0,False,0.23169559,-0.7238242,9.671944,0.07449576,-0.014899153,0.017027603,0.3268045247046187,1122486697.0,1122487842.5247047,False,0.48319084917830296,-0.07553454890440406,9.829875345327604,-0.008552114,4.0680607411377676e-05,0.014721786902792685
0.336443,2.5014428092651375,0.336443,1774896432.901443,415.25952000000007,0.12192000000000001,33.49817,-99.33435,27.0,3.0,0.0,0.0,14.052205634502974,4.046,0.0,0.0,True,-56.0,2.0,14.0,7.0,False,False,False,0.3394563473344104,1122497481.0,1122500494.3473344,False,97120.80385821534,25.00803858215338,0.337349,1122497481.0,1122498387.0,False,0.2460643,-0.6537767,9.630633,-0.038312107,-0.008513802,0.004256901,0.3371551183315431,1122497481.0,1122498193.1183314,False,0.4739519284192625,-0.015481810114572343,9.83911394754744,-0.008552114,0.002399280985499455,0.018259686987289643
0.346941,2.5119408092651376,0.346941,1774896432.9119408,415.25952000000007,0.12192000000000001,33.49817,-99.33435,27.0,3.0,0.0,0.0,-0.12010788126844218,4.046,0.0,0.0,True,-56.0,2.0,14.0,7.0,False,False,False,0.35017482229402264,1122507979.0,1122511212.822294,False,97119.8062339637,24.998062339636984,0.3481,1122507979.0,1122509138.0,False,0.24426821,-0.6645532,9.603692,0.070238866,0.05746816,0.11493632,0.3478951410060976,1122507979.0,1122508933.141006,False,0.5348067914405489,-0.15049614323551858,9.905008361280489,-0.008552114,4.65598513719463e-05,0.018325957
0.35799,2.5229898092651375,0.35799,1774896432.9229898,415.25952000000007,0.12192000000000001,33.49817,-99.33435,27.0,3.0,0.0,0.0,-15.036272106431127,4.046,0.0,0.0,True,-56.0,2.0,14.0,7.0,False,False,False,0.3613975870454757,1122519028.0,1122522435.5870454,False,97118.8807309588,24.991192690411978,0.358837,1122519028.0,1122519875.0,False,0.24247213,-0.6645532,9.684516,-0.027669856,-0.04469746,-0.004256901,0.3586397858306189,1122519028.0,1122519677.7858307,False,0.5876674841096634,0.01128038688608382,9.676096155989867,-0.009751403610025335,0.0,0.02072453916494752
0.368232,2.5332318092651374,0.368232,1774896432.9332318,415.25952000000007,0.12192000000000001,33.49817,-99.33435,27.0,3.0,0.0,0.0,-28.862985292612414,4.046,0.0,0.0,True,-56.0,2.0,14.0,7.0,False,False,False,0.3716219661954803,1122529270.0,1122532659.9661956,False,97118.40449176973,24.99595508230261,0.369583,1122529270.0,1122530621.0,False,0.26043302,-0.53882694,9.616265,0.07236732,0.059596613,0.027669856,0.3693720677734375,1122529270.0,1122530410.0677733,False,0.5792509349355468,-0.10762747849853507,9.79846569013672,-0.012169342533105466,0.0,0.021967167795996095
0.379792,2.5447918092651376,0.379792,1774896432.9447918,415.25952000000007,0.12192000000000001,33.49817,-99.33435,27.0,3.0,0.0,0.0,-44.46900017566801,4.046,0.0,0.0,True,-56.0,2.0,14.0,7.0,False,False,False,0.38330433245703716,1122540830.0,1122544342.332457,False,97118.0,25.0,0.380306,1122540830.0,1122541344.0,False,0.25145257,-0.63401973,9.655779,-0.014899153,-0.059596613,-0.017027603,0.38049857785139607,1122540830.0,1122541536.5778513,False,0.4725119290487456,-0.0046144220228206394,9.649487634358731,-0.007395950543681968,0.003577768194708947,0.02212228412314245
0.389957,2.5549568092651374,0.389957,1774896432.954957,415.25952000000007,0.12192000000000001,33.49817,-99.33435,27.0,3.0,0.0,0.0,-58.19176326271469,4.046,0.0,0.0,True,-56.0,2.0,14.0,7.0,False,False,False,0.3939572682926829,1122550995.0,1122554995.2682927,False,97118.0,25.0,0.391071,1122550995.0,1122552109.0,False,0.42028502,-0.52266216,9.548014,0.068110414,-0.05746816,-0.025541406,0.3908560056791292,1122550995.0,1122551894.0056791,False,0.9191442294746799,0.0045944912709796355,9.7369730219593,-0.010922374255466155,-0.0011241308253099776,0.029175133470989104
0.400945,2.5659448092651376,0.400945,1774896432.965945,415.25952000000007,0.12192000000000001,33.49817,-99.33435,27.0,3.0,0.0,0.0,-73.02557740934225,4.046,0.0,0.0,True,-56.0,2.0,14.0,7.0,False,False,False,0.40544237082405343,1122561983.0,1122566480.370824,False,97118.8407572383,25.0,0.401833,1122561983.0,1122562871.0,False,0.3017431,-0.6681454,9.503111,-0.008513802,0.04895436,0.07449576,0.4016426957433233,1122561983.0,1122562680.6957433,False,0.4959212528848794,0.061197893253778,9.809303644790813,-0.009795447830097533,0.0023786494831829277,0.024521025373439077
0.411801,2.5768008092651375,0.411801,1774896432.976801,415.25952000000007,0.12192000000000001,33.49817,-99.33435,27.0,3.0,0.0,0.0,-87.68119138602486,4.046,0.0,0.0,True,-56.0,2.0,14.0,7.0,False,False,False,0.41672464253897545,1122572839.0,1122577762.642539,False,97121.4688195991,25.0,0.412576,1122572839.0,1122573614.0,False,0.20475423,-0.7974639,9.616265,0.014899153,0.110679425,-0.08088112,0.41276267247007614,1122572839.0,1122573800.67247,False,0.49854029260065275,-0.4106021167312305,9.973784917301415,-0.013353952588683365,-0.001200459892818284,0.021991149
0.422437,2.5874368092651374,0.422437,1774896432.987437,415.25952000000007,0.12192000000000001,33.49817,-99.33435,27.0,3.0,0.0,0.0,-102.039805079466,4.046,0.0,0.0,True,-56.0,2.0,14.0,7.0,False,False,False,0.42760940135927755,1122583475.0,1122588647.4013593,False,97122.3979610837,25.0,0.423298,1122583475.0,1122584336.0,False,0.1957738,-0.6178549,9.770728,-0.019156054,-0.034055207,0.027669856,0.42310354951033735,1122583475.0,1122584141.5495102,False,0.5446956910409867,-0.09213018190496852,10.001478252811026,-0.008640741511788164,-2.2156882480955237e-05,0.021991149
0.432903,2.5979028092651375,0.432903,1774896432.9979029,415.25952000000007,0.12192000000000001,33.49817,-99.33435,27.0,3.0,0.0,0.0,-116.16891855403861,4.046,0.0,0.0,True,-56.0,2.0,14.0,7.0,False,False,False,0.43807637575644726,1122593941.0,1122599114.3757565,False,97120.93636532911,25.0,0.434041,1122593941.0,1122595079.0,False,0.21373469,-0.6986789,9.474374,0.042569008,-0.023412954,0.0,0.4338397356146052,1122593941.0,1122594877.7356145,False,0.3812039489218127,0.14865782414108134,10.016086538615943,-0.014546323657044526,0.0011988420295354584,0.017195780881858167
0.443949,2.6089488092651374,0.443949,1774896433.0089488,415.25952000000007,0.12192000000000001,33.49817,-99.33435,27.0,3.0,0.0,0.0,-102.44451064120219,4.046,0.0,0.0,True,-56.0,2.0,14.0,7.0,False,False,False,0.44912138677010266,1122604987.0,1122610159.38677,False,97120.6049612115,25.0,0.444782,1122604987.0,1122605820.0,False,0.2981509,-0.68969846,9.564178,0.03618366,0.004256901,-0.09578027,0.44459427809472063,1122604987.0,1122605632.2780948,False,0.6178682918781129,-0.17599976424431774,9.931719506610522,-0.008658875734673548,-0.0011790258026351539,0.01590384835742099
0.454794,2.6197938092651376,0.454794,1774896433.019794,415.25952000000007,0.12192000000000001,33.49817,-99.33435,27.0,3.0,0.0,0.0,-82.38124150737772,4.046,0.0,0.0,True,-56.0,2.0,14.0,7.0,False,False,False,0.4599623564825568,1122615832.0,1122621000.3564825,False,97122.1163190412,25.0,0.455543,1122615832.0,1122616581.0,False,0.27300566,-0.83338565,9.442044,-0.04895436,0.023412954,0.008513802,0.45572590262751156,1122615832.0,1122616763.9026275,False,0.8639087877897993,-0.5846475945131377,9.472056768160742,-0.01101634531530139,0.003644420291499228,0.01700037045749614
0.465797,2.6307968092651377,0.465797,1774896433.030797,415.25952000000007,0.12192000000000001,33.49817,-99.33435,27.0,3.0,0.0,0.0,-62.025672094793904,4.046,0.0,0.0,True,-56.0,2.0,14.0,7.0,False,False,False,0.4705983619963921,1122626835.0,1122631636.3619964,False,97122.19903788334,25.0,0.466301,1122626835.0,1122627339.0,False,0.3340727,-0.8818801,9.46719,-0.0063853515,0.12345012,0.07875267,0.4664959856121963,1122626835.0,1122627533.9856122,False,0.4425301449070988,-0.33785105260600307,10.372230698237257,-0.012217305,0.00233228876116246,0.01090663621584564
0.475903,2.6409028092651377,0.475903,1774896433.0409029,415.25952000000007,0.12192000000000001,33.49817,-99.33435,27.0,3.0,0.0,0.0,-43.32955426478651,4.046,0.0,0.0,True,-56.0,2.0,14.0,7.0,False,False,False,0.47991392191392496,1122636941.0,1122640951.9219139,False,97120.46276093119,25.0,0.477015,1122636941.0,1122638053.0,False,0.26761737,-0.5298465,9.980871,0.010642252,0.051082812,-0.046825908,0.4768128683182468,1122636941.0,1122637850.8683183,False,-0.19801856383039695,0.5238943079371148,10.210942019628394,-0.012217305,-0.0035499449859171172,0.006200849584097177
0.48706,2.6520598092651375,0.48706,1774896433.05206,415.25952000000007,0.12192000000000001,33.49817,-99.33435,27.0,3.0,0.0,0.0,-22.689084580500747,4.046,0.0,0.0,True,-56.0,2.0,14.0,7.0,False,False,False,0.49041834848484844,1122648098.0,1122651456.3484848,False,97124.56186868687,25.0,0.487762,1122648098.0,1122648800.0,False,-0.059270963,-0.68969846,11.182455,-0.023412954,-0.04469746,-0.019156054,0.4875618230500582,1122648098.0,1122648599.82305,False,-0.8492932680791626,0.9024089036088478,12.166225075669384,-0.00862038298253783,-0.0012672431630966212,-0.0070800633669383176
0.497729,2.6627288092651376,0.497729,1774896433.062729,415.25952000000007,0.12192000000000001,33.49817,-99.33435,27.0,3.0,0.0,0.0,-2.9514157571929474,4.046,0.0,0.0,True,-56.0,2.0,14.0,7.0,False,False,False,0.5011412323232323,1122658767.0,1122662179.2323232,False,97147.01346801347,25.0,0.498498,1122658767.0,1122659536.0,False,2.097833,-0.9339667,28.507538,0.07449576,-0.017027603,-0.008513802,0.4986819714027149,1122658767.0,1122659719.9714026,False,2.2375876161990935,0.7156536040633478,34.82965575357463,-0.01622800845936647,-0.0047294788950498125,-0.024924960166244365
0.508785,2.6737848092651375,0.508785,1774896433.0737848,415.25952000000007,0.12192000000000001,33.49817,-99.33435,27.0,3.0,0.0,0.0,17.50220374889878,4.046,0.0,0.0,True,-56.0,2.0,14.0,7.0,False,False,False,0.512222357394693,1122669823.0,1122673260.3573947,False,97152.37186862127,25.0,0.509254,1122669823.0,1122670292.0,False,-7.3082895,0.16524026,58.852474,-0.068110414,0.08726647,0.04469746,0.509452822074215,1122669823.0,1122670490.8220742,False,5.474177005185553,2.115817573263523,92.66880106279744,-0.10699324854900115,0.07801638487630928,0.016378860842054976
0.518903,2.6839028092651374,0.518903,1774896433.0839028,415.25952000000007,0.12192000000000001,33.49817,-99.33435,27.0,3.0,0.0,0.0,36.22052160007769,4.046,0.0,0.0,True,-56.0,2.0,14.0,7.0,False,False,False,0.5222873172202636,1122679941.0,1122683325.3172202,False,97112.94377435517,25.0,0.51997,1122679941.0,1122681008.0,False,-3.2167969,-6.7048035,58.852474,-0.17453294,0.05321126,-0.15537688,0.5197691387250238,1122679941.0,1122680807.138725,False,8.422754456812559,-4.311158168886774,112.26301179809704,-0.1434542942863939,0.25914544179162696,-0.021258343189153185
0.529808,2.6948078092651375,0.529808,1774896433.0948079,415.25952000000007,0.12192000000000001,33.49817,-99.33435,27.0,3.0,0.0,0.0,56.39479083975999,4.046,0.0,0.0,True,-56.0,2.0,14.0,7.0,False,False,False,0.5332649475095038,1122690846.0,1122694302.9475095,False,97080.9556486987,25.0,0.530697,1122690846.0,1122691735.0,False,1.6344417,-11.974531,58.852474,-0.15111998,-0.15750533,-0.046825908,0.5308920382674129,1122690846.0,1122691930.0382674,False,7.6733085878039855,-14.447306640543355,108.82236587868226,-0.0841884049830229,0.044537272321097325,0.08044070347802541
0.540697,2.7056968092651372,0.540697,1774896433.105697,415.25952000000007,0.12192000000000001,33.49817,-99.33435,27.0,3.0,0.0,0.0,52.9538886626103,4.046,0.0,0.0,True,-56.0,2.0,14.0,7.0,False,False,False,0.5446735074568672,1122701735.0,1122705711.5074568,False,97085.20128667512,25.0,0.541431,1122701735.0,1122702469.0,False,-7.723186,-0.034125708,58.852474,-0.059596613,-0.08939492,-0.50869966,0.541616670056292,1122701735.0,1122702654.6700563,False,6.930755489013944,-2.37312834301793,100.90489759669514,-0.08034048096967521,0.0731345576087705,-0.4472527446540754
0.55171,2.7167098092651374,0.55171,1774896433.11671,415.25952000000007,0.12192000000000001,33.49817,-99.33435,27.0,3.0,0.0,0.0,27.734154739728943,4.046,0.0,0.0,True,-56.0,2.0,14.0,7.0,False,False,False,0.5561899169054442,1122712748.0,1122717227.9169054,False,97091.72492836676,25.0,0.552194,1122712748.0,1122713232.0,False,3.6065483,4.177705,58.852474,0.038312107,-0.08726647,0.19581744,0.5523836892005609,1122712748.0,1122713421.6892006,False,-11.440516428050502,20.7769418684432,116.51004028892005,-0.2002380276471249,-0.005007552697223033,0.17201759726227214
0.562016,2.7270158092651373,0.562016,1774896433.1270158,415.25952000000007,0.12192000000000001,33.49817,-99.33435,27.0,3.0,0.0,0.0,4.133448500810196,4.046,0.0,0.0,True,-56.0,2.0,14.0,7.0,False,False,False,0.5669283574862803,1122723054.0,1122727966.3574862,False,97101.73512699723,25.0,0.562928,1122723054.0,1122723966.0,False,14.427989,8.226091,58.852474,0.038312107,-0.025541406,0.14473464,0.5627272706872369,1122723054.0,1122723765.2706873,False,9.021068971481823,17.77941550958394,121.39831726040201,-0.060140098394578095,0.055034418235156105,0.09196163961664398
0.572749,2.7377488092651374,0.572749,1774896433.137749,415.25952000000007,0.12192000000000001,33.49817,-99.33435,27.0,3.0,0.0,0.0,-20.44508633931366,4.046,0.0,0.0,True,-56.0,2.0,14.0,7.0,False,False,False,0.5779210521448156,1122733787.0,1122738959.0521448,False,97112.18009016127,25.001990519124412,0.573649,1122733787.0,1122734687.0,False,-9.767137,-1.9451653,58.852474,0.031926755,0.012770703,-0.22774419,0.5738399776392961,1122733787.0,1122734877.9776392,False,-17.21699182998549,5.033114764332859,105.22503599853361,0.04784297289919347,-0.007379198960411054,-0.2902886319263194
0.583651,2.7486508092651376,0.583651,1774896433.148651,415.25952000000007,0.12192000000000001,33.49817,-99.33435,27.0,3.0,0.0,0.0,-45.41063062581628,4.046,0.0,0.0,True,-56.0,2.0,14.0,7.0,False,False,False,0.5887951853418227,1122744689.0,1122749833.1853418,False,97122.82014221314,25.007057210577685,0.584391,1122744689.0,1122745429.0,False,5.7115655,5.894767,58.852474,0.11493632,-0.004256901,-0.55552554,0.584574350065068,1122744689.0,1122745612.350065,False,2.3214597394310723,2.952494040342011,120.2569340725041,0.05832962604554738,0.05792283621082005,-0.3354562087228126
0.594027,2.7590268092651375,0.594027,1774896433.1590269,415.25952000000007,0.12192000000000001,33.49817,-99.33435,27.0,3.0,0.0,0.0,-69.17163663542439,4.046,0.0,0.0,True,-56.0,2.0,14.0,7.0,False,False,False,0.5991631011879803,1122755065.0,1122760201.101188,False,97128.2464011181,25.01,0.595111,1122755065.0,1122756149.0,False,-8.933751,-7.1861553,58.852474,-0.05746816,-0.13409238,-0.6683334,0.594913699386503,1122755065.0,1122755951.6993866,False,-4.671347371779121,-5.697354580368072,108.56532903067489,0.0406543945705522,0.08620320001226986,-0.5817310606134962
0.604931,2.7699308092651376,0.604931,1774896433.169931,415.25952000000007,0.12192000000000001,33.49817,-99.33435,27.0,3.0,0.0,0.0,-94.14176091537516,4.046,0.0,0.0,True,-56.0,2.0,14.0,7.0,False,False,False,0.6100889447472629,1122765969.0,1122771126.9447472,False,97126.21444211507,25.01,0.605882,1122765969.0,1122766920.0,False,0.3861593,3.7933416,58.852474,0.2149735,0.070238866,-0.6917464,0.6056883551641901,1122765969.0,1122766726.3551643,False,14.125229873087552,9.3831106686113,122.47394366758397,0.09190703779966991,0.005158791215336453,-0.579232037616951
0.615734,2.7807338092651372,0.615734,1774896433.180734,415.25952000000007,0.12192000000000001,33.49817,-99.33435,27.0,3.0,0.0,0.0,-118.88059552618839,4.046,0.0,0.0,True,-56.0,2.0,14.0,7.0,False,False,False,0.6205545734779268,1122776772.0,1122781592.573478,False,97125.73196140381,25.00817009649048,0.616619,1122776772.0,1122777657.0,False,-3.1557298,-1.2393019,58.852474,0.076624215,-0.0021284504,-0.69387484,0.6168084421394426,1122776772.0,1122777846.4421394,False,-4.175706474014661,-0.1777068433570999,116.15771061107601,0.09049092597907428,-0.03429440599693337,-0.7200750822999915
0.626431,2.7914308092651376,0.626431,1774896433.1914308,415.25952000000007,0.12192000000000001,33.49817,-99.33435,27.0,3.0,0.0,0.0,-143.37669048424337,4.046,0.0,0.0,True,-56.0,2.0,14.0,7.0,False,False,False,0.6303769788660233,1122787469.0,1122791414.978866,False,97127.55879088037,25.00360302279908,0.62739,1122787469.0,1122788428.0,False,-6.9975657,-7.5489655,58.852474,0.0,-0.014899153,-0.64066356,0.6272005578605574,1122787469.0,1122788238.5578606,False,-13.77046422598534,-3.1004601316429,113.03641438892399,0.028016934020925727,-0.03900942400306663,-0.8131967077000085
0.637081,2.8020808092651377,0.637081,1774896433.202081,415.25952000000007,0.12192000000000001,33.49817,-99.33435,27.0,3.0,0.0,0.0,-159.15041097336723,4.046,0.0,0.0,True,-56.0,2.0,14.0,7.0,False,False,False,0.6403384396539695,1122798119.0,1122801376.4396539,False,97129.2056648528,24.997943351472024,0.638126,1122798119.0,1122799164.0,False,-5.316426,-1.1836232,58.852474,0.11493632,0.010642252,-0.7428292,0.6379175633089477,1122798119.0,1122798955.563309,False,-4.104708937675818,4.748822364012412,117.60654871553182,0.0005218308469329275,-0.0378973636139561,-0.8268743446370287
0.647891,2.8128908092651375,0.647891,1774896433.2128909,415.25952000000007,0.12192000000000001,33.49817,-99.33435,27.0,3.0,0.0,0.0,-139.15189190129325,4.046,0.0,0.0,True,-56.0,2.0,14.0,7.0,False,False,False,0.6511554783963536,1122808929.0,1122812193.4783964,False,97130.21119947909,24.98788800520906,0.64888,1122808929.0,1122809918.0,False,3.6532466,0.26582128,58.852474,-0.07449576,-0.008513802,-0.91310525,0.6486838390740741,1122808929.0,1122809721.8390741,False,6.271455913064813,5.572452291212963,112.52527046296296,0.0035983357902592585,-0.012685295628055558,-0.8115187583824074
0.658789,2.8237888092651375,0.658789,1774896433.223789,415.25952000000007,0.12192000000000001,33.49817,-99.33435,27.0,3.0,0.0,0.0,-118.99057267396098,4.046,0.0,0.0,True,-56.0,2.0,14.0,7.0,False,False,False,0.6620566395500186,1122819827.0,1122823094.63955,False,97128.75195239866,24.98112402380067,0.659641,1122819827.0,1122820679.0,False,-6.986789,-0.030533526,58.852474,-0.014899153,-0.042569008,-0.8769216,0.6598353363778946,1122819827.0,1122820873.3363779,False,-9.099280707251616,-0.28555585896854563,118.92595487240521,-0.029785472667127902,-0.02355091527539453,-0.8552113
0.669239,2.8342388092651376,0.669239,1774896433.2342389,415.25952000000007,0.12192000000000001,33.49817,-99.33435,27.0,3.0,0.0,0.0,-99.65805423703455,4.046,0.0,0.0,True,-56.0,2.0,14.0,7.0,False,False,False,0.6724964382670138,1122830277.0,1122833534.438267,False,97119.036444775,24.985981777612494,0.670388,1122830277.0,1122831426.0,False,-4.4489145,-2.8845203,58.852474,-0.025541406,0.0021284504,-0.93013287,0.6701966381585017,1122830277.0,1122831234.6381586,False,0.5022322224467217,2.0952133133720827,112.43420546747855,-0.05452103145022604,0.023564441215056745,-0.8552113
0.679892,2.8448918092651376,0.679892,1774896433.244892,415.25952000000007,0.12192000000000001,33.49817,-99.33435,27.0,3.0,0.0,0.0,-79.94998544195546,4.046,0.0,0.0,True,-56.0,2.0,14.0,7.0,False,False,False,0.6832239417066435,1122840930.0,1122844261.9417067,False,97115.7701216262,24.99,0.681132,1122840930.0,1122842170.0,False,-1.8140507,-1.2051762,58.852474,-0.059596613,-0.029798307,-0.87905,0.6809185697151424,1122840930.0,1122841956.5697153,False,-7.224062426611701,3.4619264604572724,119.62223526236882,-0.010671825026236842,0.03401429592953524,-0.8312621439842578
0.6909,2.8558998092651375,0.6909,1774896433.2559,415.25952000000007,0.12192000000000001,33.49817,-99.33435,27.0,3.0,0.0,0.0,-59.5851660205504,4.046,0.0,0.0,True,-56.0,2.0,14.0,7.0,False,False,False,0.6946864077627561,1122851938.0,1122855724.4077628,False,97141.90725396133,24.99,0.691872,1122851938.0,1122852910.0,False,-5.381085,-0.44363418,58.852474,-0.046825908,0.08726647,-0.8875638,0.6916804934497817,1122851938.0,1122852718.4934497,False,5.001070577183308,7.986933783333299,116.30621492940323,-0.013373680429767075,-0.014989316760552741,-0.8463760369395923
0.70175,2.8667498092651376,0.70175,1774896433.2667499,415.25952000000007,0.12192000000000001,33.49817,-99.33435,27.0,3.0,0.0,0.0,-39.51264687790437,4.046,0.0,0.0,True,-56.0,2.0,14.0,7.0,False,False,False,0.705880143311283,1122862788.0,1122866918.1433113,False,97155.1679483883,24.99,0.702621,1122862788.0,1122863659.0,False,2.879132,-0.7058633,58.852474,-0.038312107,0.102165624,-0.82583874,0.7028066643236911,1122862788.0,1122863844.6643238,False,7.726698494854527,3.457921312534913,109.82081334910332,-0.05038743687744463,0.024689040371091577,-0.7770395269460211
0.712453,2.8774528092651375,0.712453,1774896433.277453,415.25952000000007,0.12192000000000001,33.49817,-99.33435,27.0,3.0,0.0,0.0,-19.712077994610354,4.046,0.0,0.0,True,-56.0,2.0,14.0,7.0,False,False,False,0.7166797132371847,1122873491.0,1122877717.7132373,False,97139.15635445641,24.99,0.713408,1122873491.0,1122874446.0,False,-3.062333,-0.5136817,58.852474,-0.03618366,-0.08300956,-0.84286636,0.7132106709020457,1122873491.0,1122874248.670902,False,-3.9234052201856837,4.681089994007395,118.12451170226191,0.001460087419482961,-0.029515189619537037,-0.8465623453924487
0.722869,2.8878688092651377,0.722869,1774896433.287869,415.25952000000007,0.12192000000000001,33.49817,-99.33435,27.0,3.0,0.0,0.0,-0.442459617670238,4.046,0.0,0.0,True,-56.0,2.0,14.0,7.0,False,False,False,0.7271896936490498,1122883907.0,1122888227.693649,False,97123.5741100021,24.99,0.724221,1122883907.0,1122885259.0,False,-0.4615951,0.055678785,58.852474,-0.09578027,-0.051082812,-1.0408123,0.724015354624916,1122883907.0,1122885053.354625,False,-1.3041176042935443,-5.7506524596868385,120.216191812506,-0.016732462306502677,-0.004176368042147806,-0.7975441819210451
0.733905,2.8989048092651375,0.733905,1774896433.298905,415.25952000000007,0.12192000000000001,33.49817,-99.33435,27.0,3.0,0.0,0.0,19.97415985313546,4.046,0.0,0.0,True,-56.0,2.0,14.0,7.0,False,False,False,0.7383252681330498,1122894943.0,1122899363.2681332,False,97107.06435099694,24.99,0.735029,1122894943.0,1122896067.0,False,-2.5540397,6.0438423,58.852474,-0.14047773,-0.08300956,-0.74921453,0.7348254816223068,1122894943.0,1122895863.4816222,False,-4.831742980807537,12.490698876697468,118.2158398750679,-0.006315702774162579,0.0023284329590077934,-0.6359391222578307
0.744952,2.9099518092651375,0.744952,1774896433.309952,415.25952000000007,0.12192000000000001,33.49817,-99.33435,27.0,3.0,0.0,0.0,4.584108360134302,4.046,0.0,0.0,True,-56.0,2.0,14.0,7.0,False,False,False,0.749555396519488,1122905990.0,1122910593.3965194,False,97103.17632676543,24.991750323601323,0.745788,1122905990.0,1122906826.0,False,-1.0938187,-4.730901,58.852474,-0.15750533,-0.029798307,-0.751343,0.7455940299873165,1122905990.0,1122906632.0299873,False,5.508596548767834,-3.556117812085432,116.43325946910673,-0.08648884364682868,-0.004754765249048701,-0.6868430840523643
0.755765,2.9207648092651377,0.755765,1774896433.320765,415.25952000000007,0.12192000000000001,33.49817,-99.33435,27.0,3.0,0.0,0.0,-14.338614570693544,4.046,0.0,0.0,True,-56.0,2.0,14.0,7.0,False,False,False,0.7607131227767391,1122916803.0,1122921751.1227767,False,97124.43012608467,24.99693417709382,0.756567,1122916803.0,1122917605.0,False,2.4642353,-5.8714175,58.852474,-0.10003717,0.07236732,-0.87905,0.7567505838907973,1122916803.0,1122917788.583891,False,4.64943853628639,-3.15778493996565,115.03595002259988,-0.07910920149701679,-0.00996170911155306,-0.7969759177815947
0.766442,2.9314418092651375,0.766442,1774896433.3314419,415.25952000000007,0.12192000000000001,33.49817,-99.33435,27.0,3.0,0.0,0.0,-33.02333784198239,4.046,0.0,0.0,True,-56.0,2.0,14.0,7.0,False,False,False,0.7712364053085261,1122927480.0,1122932274.4053085,False,97127.86370231288,25.0,0.767312,1122927480.0,1122928350.0,False,-3.3461154,-1.6901205,58.852474,-0.1979459,-0.08300956,-0.8662793,0.7671216167058397,1122927480.0,1122928159.616706,False,-4.667258770963583,0.9393449007050836,119.01299256915563,-0.13099442178087106,-0.020574596921352294,-0.75098673341168
0.776897,2.9418968092651374,0.776897,1774896433.341897,415.25952000000007,0.12192000000000001,33.49817,-99.33435,27.0,3.0,0.0,0.0,-51.31956166902425,4.046,0.0,0.0,True,-56.0,2.0,14.0,7.0,False,False,False,0.780818296364257,1122937935.0,1122941856.2963643,False,97105.55637108475,25.0,0.778051,1122937935.0,1122939089.0,False,0.33766487,2.022397,58.852474,-0.23838645,0.07236732,-0.7896551,0.7778486680374905,1122937935.0,1122938886.6680374,False,-0.13811227805910686,3.7050665788159893,120.35377535195103,-0.1930811991765493,-0.02436555467960979,-0.7561360676109411
0.787885,2.9528848092651376,0.787885,1774896433.352885,415.25952000000007,0.12192000000000001,33.49817,-99.33435,27.0,3.0,0.0,0.0,-70.54853416175845,4.046,0.0,0.0,True,-56.0,2.0,14.0,7.0,False,False,False,0.7910705637263975,1122948923.0,1122952108.5637264,False,97086.36384672344,24.998939744539058,0.788789,1122948923.0,1122949827.0,False,-2.0924447,-2.8036962,58.852474,-0.27244166,-0.008513802,-0.85350865,0.788593603766718,1122948923.0,1122949631.6037667,False,-3.750323608934553,-5.292699182148959,116.25277892093534,-0.24943210219725187,-0.026833607075789263,-0.7634482101355654
0.798757,2.9637568092651376,0.798757,1774896433.363757,415.25952000000007,0.12192000000000001,33.49817,-99.33435,27.0,3.0,0.0,0.0,-89.57450694488625,4.046,0.0,0.0,True,-56.0,2.0,14.0,7.0,False,False,False,0.8018977836449463,1122959795.0,1122962935.783645,False,97083.34496482785,24.993908274713068,0.799538,1122959795.0,1122960576.0,False,-0.7615421,-5.5714707,58.852474,-0.26818475,-0.06598196,-0.7258016,0.7997233700516351,1122959795.0,1122960761.3700516,False,1.3731672530120411,1.6877841721170381,115.8468452151463,-0.27741691256454387,-0.03688322172633394,-0.7959143173149743
0.809803,2.9748028092651375,0.809803,1774896433.3748028,415.25952000000007,0.12192000000000001,33.49817,-99.33435,27.0,3.0,0.0,0.0,-108.90497929242375,4.046,0.0,0.0,True,-56.0,2.0,14.0,7.0,False,False,False,0.8129219063758076,1122970841.0,1122973959.906376,False,97079.53890085199,24.99,0.810308,1122970841.0,1122971346.0,False,-1.4063383,-2.3367128,58.852474,-0.35332277,-0.09790872,-0.8684078,0.8105093556656819,1122970841.0,1122971547.3556657,False,-1.8928319371962257,1.0611079908319834,118.84191938911655,-0.28332072949966647,-0.05027444824368627,-0.8286085074687887
0.819901,2.9849008092651372,0.819901,1774896433.3849008,415.25952000000007,0.12192000000000001,33.49817,-99.33435,27.0,3.0,0.0,0.0,-126.57645401317629,4.046,0.0,0.0,True,-56.0,2.0,14.0,7.0,False,False,False,0.8230700134818837,1122980939.0,1122984108.0134819,False,97073.86639827731,24.99,0.821033,1122980939.0,1122982071.0,False,-1.2680395,-0.1939777,58.852474,-0.37035036,-0.07449576,-0.92587596,0.82083062222434,1122980939.0,1122981868.6222243,False,-0.30393661033070174,1.4848134498236907,116.14310787286765,-0.3397562217211473,-0.059680363293147784,-0.8427173853359381
0.831061,2.9960608092651375,0.831061,1774896433.396061,415.25952000000007,0.12192000000000001,33.49817,-99.33435,27.0,3.0,0.0,0.0,-146.10642607532725,4.046,0.0,0.0,True,-56.0,2.0,14.0,7.0,False,False,False,0.8343903111750086,1122992099.0,1122995428.311175,False,97069.73015254155,24.99,0.831776,1122992099.0,1122992814.0,False,-0.9734807,0.0,58.852474,-0.3958918,-0.05321126,-0.7364439,0.8315835076151227,1122992099.0,1122992621.507615,False,-0.3808794058466227,2.3297028995162172,117.12885963268232,-0.39845511705429143,-0.07546270843755602,-0.8405943812220033
0.84174,3.0067398092651376,0.84174,1774896433.40674,415.2615742958232,0.1239742958231431,33.49817,-99.33435,26.865203686145467,3.0,0.0,0.041085916462861555,-146.86676771961876,4.046404388941564,0.0,0.0,True,-56.0,2.067398156927266,13.7978055292182,7.0,False,False,False,0.8455710196403333,1123002778.0,1123006609.0196404,False,97072.85281933818,24.99,0.842496,1123002778.0,1123003534.0,False,-2.1481235,-6.7640743,58.852474,-0.4427177,-0.05746816,-0.7981689,0.8426824272240864,1123002778.0,1123003720.4272242,False,-5.899749730135105,-3.898659187068082,121.78471332910131,-0.42305734755509217,-0.09167211346603792,-0.846892018543575
0.852774,3.0177738092651376,0.852774,1774896433.417774,415.2649374622306,0.1273374622305085,33.49817,-99.33435,26.64452347568842,3.0,0.0,0.10834924461016998,-136.82581814382306,4.047066429572935,0.0,0.0,True,-56.0,2.1777382621557906,13.466785213532628,7.0,False,False,False,0.8570999926862346,1123013812.0,1123018137.9926863,False,97073.7485711518,24.99,0.853259,1123013812.0,1123014297.0,False,-0.34305316,-2.2271514,58.852474,-0.45123148,-0.0063853515,-0.7641137,0.853460794686907,1123013812.0,1123014498.7946868,False,-2.301868022239087,1.0835336246299814,121.99287518785577,-0.44302381043263767,-0.09441751368956362,-0.8602129954648957
0.862914,3.0279138092651374,0.862914,1774896433.427914,415.2680281371781,0.1304281371780058,33.49817,-99.33435,26.441723282283085,3.0,0.0,0.1701627435601159,-127.59840934388035,4.04767483015315,0.0,0.0,True,-56.0,2.2791383588584577,13.162584923424626,7.0,False,False,False,0.8676520560399108,1123023952.0,1123028690.0560398,False,97070.31061706868,24.99,0.864001,1123023952.0,1123025039.0,False,-2.5127296,-1.3578439,58.852474,-0.6044799,-0.085138015,-0.987601,0.8637951286527514,1123023952.0,1123024833.1286528,False,-1.5652237672106288,1.1848222193168876,119.88883480834915,-0.48181086895256153,-0.11204798748842498,-0.8660898662428842
0.873867,3.038866809265137,0.873867,1774896433.4388669,415.27136661476186,0.13376661476182614,33.49817,-99.33435,26.22266307337099,3.0,0.0,0.2369322952365224,-117.63116983838003,4.0483320107798875,0.0,0.0,True,-56.0,2.388668463314505,12.833994610056484,7.0,False,False,False,0.8789003739191399,1123034905.0,1123039938.3739192,False,97065.87249357326,24.99,0.874744,1123034905.0,1123035782.0,False,-0.16164808,-0.60887444,58.852474,-0.57255316,-0.09790872,-1.0088855,0.8745497252717143,1123034905.0,1123035587.7252717,False,-0.1361192393679831,6.52971927239929,120.09126983560142,-0.5209719058178828,-0.12079666491076808,-0.842214172200201
0.884717,3.0497168092651377,0.884717,1774896433.4497168,415.2746736979158,0.1370736979157064,33.49817,-99.33435,26.005662866423464,3.0,0.0,0.30307395831412787,-107.75766042226766,4.04898301140073,0.0,0.0,True,-56.0,2.4971685667882673,12.508494299635197,7.0,False,False,False,0.8897985510633325,1123045755.0,1123050836.5510633,False,97060.2940874036,24.99,0.885492,1123045755.0,1123046530.0,False,-2.060115,-3.9334366,58.852474,-0.55552554,-0.08939492,-0.817325,0.8856781141146588,1123045755.0,1123046716.1141148,False,-1.3787741268867866,-2.062519252612488,124.70576968795359,-0.5623558875344702,-0.12971510509161824,-0.8467227419557329
0.895736,3.0607358092651373,0.895736,1774896433.4607358,415.27803229231876,0.14043229231871163,33.49817,-99.33435,25.78528265625252,3.0,0.0,0.3702458463742323,-97.7303608594896,4.0496441520312425,0.0,0.0,True,-56.0,2.6073586718737407,12.177923984378777,7.0,False,False,False,0.9008858463633375,1123056774.0,1123061923.8463633,False,97056.56688735503,24.99,0.896234,1123056774.0,1123057272.0,False,-1.4584249,-2.9060733,58.852474,-0.6832326,-0.117064774,-0.8024258,0.896424323521006,1123056774.0,1123057462.323521,False,-2.4884876824807085,-0.9459616463275197,120.23950040583026,-0.5832417213546728,-0.14187227781651904,-0.8504542899114033
0.905852,3.0708518092651373,0.905852,1774896433.470852,415.28111565205927,0.1435156520592326,33.49817,-99.33435,25.58296246330495,3.0,0.0,0.4319130411846523,-88.52479208037508,4.050251112610085,0.0,0.0,True,-56.0,2.7085187683475267,11.87444369495742,7.0,False,False,False,0.9110892457153589,1123066890.0,1123072127.2457154,False,97055.61689439828,24.99,0.906975,1123066890.0,1123068013.0,False,-2.4552548,-0.09878494,58.852474,-0.5619109,-0.20858814,-0.90033454,0.9067754672763646,1123066890.0,1123067813.4672763,False,-2.2256066973992583,0.44223384695626555,123.89215989711344,-0.6091441937410688,-0.1501139797084881,-0.8575186250928837
0.916896,3.0818958092651374,0.916896,1774896433.481896,415.28448186646955,0.14688186646950485,33.49817,-99.33435,25.36208225265716,3.0,0.0,0.49923732939009713,-78.47474249590086,4.050913753242028,0.0,0.0,True,-56.0,2.818958873671419,11.543123378985744,7.0,False,False,False,0.9228891622444306,1123077934.0,1123083927.1622443,False,97050.90146270506,24.98879454785443,0.917715,1123077934.0,1123078753.0,False,-1.0453243,-0.09519276,58.852474,-0.63640666,-0.13409238,-1.0046287,0.9175225024893636,1123077934.0,1123078560.5024893,False,-4.739670029048629,1.592262245496523,122.665403967593,-0.6552371909749256,-0.15747184453426277,-0.8420569686883316
0.927648,3.0926478092651375,0.927648,1774896433.492648,415.2877590791949,0.15015907919489846,33.49817,-99.33435,25.147042047578843,3.0,0.0,0.5647815838979692,-68.6904131648373,4.051558873857263,0.0,0.0,True,-56.0,2.9264789762105794,11.220563071368263,7.0,False,False,False,0.935321026479541,1123088686.0,1123096359.0264795,False,97041.05398270614,24.985898230207688,0.928459,1123088686.0,1123089497.0,False,-1.6470144,-2.482196,58.852474,-0.69813174,-0.18943208,-0.84286636,0.9286503372982158,1123088686.0,1123089688.3372982,False,-0.2906354491248936,1.387792419796093,121.8713282837723,-0.692830189464741,-0.17117304860662702,-0.8503679968564146
0.937847,3.1028468092651376,0.937847,1774896433.502847,415.29260321207863,0.15500321207863768,33.49817,-99.33435,25.028469073475915,3.0,0.07809636235913033,0.6529868679772947,-62.82560313080154,4.052,0.0,0.0,True,-56.0,3.028469073475915,11.085407220427745,6.94306185304817,False,False,False,0.9471134914473506,1123098885.0,1123108151.4914474,False,97031.7129811707,24.98315087681491,0.939183,1123098885.0,1123100221.0,False,-2.0026402,-1.9074473,58.852474,-0.7300585,-0.08726647,-0.685361,0.9389754648352685,1123098885.0,1123100013.4648352,False,-0.7375771670867548,-1.1970971934296206,116.71075752289248,-0.6987115839139053,-0.1782307893420183,-0.852720612404418
0.948961,3.1139608092651376,0.948961,1774896433.5139608,415.3027658633705,0.16516586337049727,33.49817,-99.33435,25.13960917946738,3.0,0.3829759011149179,0.8223643895082877,-66.04866620455402,4.052,0.0,0.0,True,-56.0,3.1396091794673806,11.418827538402141,6.720781641065239,False,False,False,0.9599639136115077,1123109999.0,1123121001.9136114,False,97021.53395469116,24.9801570454974,0.949898,1123109999.0,1123110936.0,False,-1.9774948,-1.0561008,58.852474,-0.6832326,-0.15963379,-0.90246296,0.9497013060379735,1123109999.0,1123110739.306038,False,-3.8705947759470942,2.6736060550346505,122.76583930621796,-0.7288124203275443,-0.19276428419778638,-0.8527679
0.959444,3.1244438092651374,0.959444,1774896433.5244439,415.3123515277121,0.1747515277120991,33.49817,-99.33435,25.244439279441153,3.0,0.6705458313629721,0.9821254618683178,-69.08873910379344,4.052,0.0,0.0,True,-56.0,3.2444392794411536,11.73331783832346,6.511121441117693,False,False,False,0.9679290899921089,1123120482.0,1123128967.089992,False,97018.62239681614,24.976603424023054,0.960638,1123120482.0,1123121676.0,False,-2.343897,-0.13829891,58.852474,-0.8066827,-0.26392785,-0.8684078,0.9604310083007346,1123120482.0,1123121469.0083008,False,0.10262586028812626,4.225385409960876,120.53899462360462,-0.7689131697357121,-0.20501526595649266,-0.8383896571605763
0.970772,3.1357718092651377,0.970772,1774896433.5357718,415.3227098607906,0.18510986079057531,33.49817,-99.33435,25.357719387473484,3.0,0.9812958237172589,1.1547643465095883,-72.37386223673101,4.052,0.0,0.0,True,-56.0,3.357719387473483,12.07315816242045,6.284561225053034,False,False,False,0.9762718644800493,1123131810.0,1123137309.86448,False,97015.90184238515,24.972716917693074,0.971373,1123131810.0,1123132411.0,False,-1.1423131,-2.920442,58.852474,-0.84499484,-0.2617994,-0.97695875,0.9715641937359341,1123131810.0,1123132602.1937358,False,-0.36066013234433925,0.5147279499062304,125.63484831957989,-0.7967424393473369,-0.21397697023818457,-0.8221157633533382
0.981041,3.1460408092651377,0.981041,1774896433.546041,415.3320998433456,0.19449984334556059,33.49817,-99.33435,25.460409485406394,3.0,1.262995300366817,1.311264055759343,-75.35187507678539,4.052,0.0,0.0,True,-56.0,3.4604094854063927,12.381228456219178,6.079181029187215,False,False,False,0.9845652554851293,1123142079.0,1123145603.255485,False,97011.93759141881,24.97,0.982104,1123142079.0,1123143142.0,False,-3.2329617,-0.8495505,58.852474,-0.83009565,-0.19581744,-0.85138017,0.9818977120217555,1123142079.0,1123142935.7120218,False,-1.7477832672074403,2.2106127593117195,120.57484286571639,-0.8061542128094524,-0.22338879184827465,-0.8162334290135033
0.991864,3.1568638092651375,0.991864,1774896433.556864,415.34199640398367,0.20439640398365622,33.49817,-99.33435,25.568639588622663,3.0,1.5598921195096858,1.4762067330609365,-78.49054807005719,4.052,0.0,0.0,True,-56.0,3.568639588622662,12.705918765867985,5.862720822754676,True,False,False,0.9959006461725987,1123152902.0,1123156938.6461725,False,97002.43910287664,24.97,0.992842,1123152902.0,1123153880.0,False,-2.020601,0.8262013,58.852474,-0.7130309,-0.236258,-0.84073794,0.9926473774736452,1123152902.0,1123153685.3774736,False,-3.3684037660809936,2.8647233641205796,126.48373189754017,-0.8243359476049564,-0.23557254567412603,-0.801720921916035
1.002758,3.1677578092651375,1.002758,1774896433.5677578,415.3519578870837,0.21435788708366688,33.49817,-99.33435,25.67757969251604,3.0,1.8587366125100053,1.6422314513944474,-81.6498110829652,4.052,0.0,0.0,True,-56.0,3.6775796925160416,13.032739077548126,5.644840614967917,True,False,False,1.0072664401503468,1123163796.0,1123168304.4401503,False,96988.28676754049,24.97,1.003585,1123163796.0,1123164623.0,False,-2.9868975,1.3309026,58.852474,-0.87905,-0.16176224,-0.6811041,1.003770763945764,1123163796.0,1123164808.7639458,False,-2.6869710792883374,4.490509006824987,127.78078983565374,-0.8520320155091459,-0.23718470003549014,-0.7816962626717625
1.013744,3.1787438092651374,1.013744,1774896433.578744,415.3620034950639,0.2244034950639051,33.49817,-99.33435,25.7874397972868,3.0,2.1601048519171533,1.809658251065085,-84.83575412131724,4.052,0.0,0.0,True,-56.0,3.787439797286801,13.362319391860403,5.425120405426398,True,False,False,1.0186367807440246,1123174782.0,1123179674.780744,False,96964.46400346955,24.97,1.014329,1123174782.0,1123175367.0,False,-1.8050703,-0.83697784,58.852474,-0.90033454,-0.18091829,-0.78752667,1.0145177585104381,1123174782.0,1123175555.7585104,False,0.6697824563184305,2.9558681679988688,119.91119832142182,-0.8795600026499906,-0.2468110442495768,-0.7696472307974421
1.023993,3.1889928092651374,1.023993,1774896433.5889928,415.37137518960145,0.23377518960144947,33.49817,-99.33435,25.889929895028974,3.0,2.4412556880434835,1.9658531600241576,-87.80796695584027,4.052,0.0,0.0,True,-56.0,3.889929895028975,13.669789685086924,5.22014020994205,True,False,False,1.0291354170616114,1123185031.0,1123190173.4170616,False,96946.45023696682,24.971895734597155,1.025063,1123185031.0,1123186101.0,False,-2.4696236,-0.72562027,58.852474,-0.8896923,-0.1979459,-0.76198524,1.0248631380477713,1123185031.0,1123185901.1380477,False,-2.2267939619841615,3.389431998589424,123.17215177731799,-0.8748499924882452,-0.24798854197103629,-0.7672921968027083
1.034844,3.1998438092651376,1.034844,1774896433.599844,415.38129735346394,0.24369735346396248,33.49817,-99.33435,25.998439998512275,3.0,2.7389206039188734,2.1312225577327073,-90.95475995685598,4.052,0.0,0.0,True,-56.0,3.998439998512275,13.995319995536825,5.00312000297545,True,False,False,1.0400734857585285,1123195882.0,1123201111.4857585,False,96934.23006897846,24.976987471258973,1.035807,1123195882.0,1123196845.0,False,-4.019649,0.7938717,58.852474,-0.96418804,-0.20433125,-0.82583874,1.0356138694690264,1123195882.0,1123196651.869469,False,-4.228395586836292,5.1930628925608495,123.50773049502213,-0.8975546327157081,-0.25880920733130536,-0.7612479061393805
1.045475,3.210474809265137,1.045475,1774896433.6104748,415.4548738349521,0.3172738349520613,33.49817,-99.33435,26.0,3.0,2.8070555086539666,3.219143647117427,-92.36174805200388,4.052,0.0,0.0,True,-56.0,4.0,13.581000599383422,5.418999400616577,True,False,False,1.0507499345321067,1123206513.0,1123211787.9345322,False,96929.54358331011,24.978043397453767,1.046545,1123206513.0,1123207583.0,False,-2.1660843,2.1858413,58.852474,-0.9194906,-0.2490287,-0.75347143,1.0463440726845321,1123206513.0,1123207382.0726845,False,-1.7844706652374378,3.234779367324882,125.21740404701457,-0.9183527161918194,-0.2626034873211095,-0.7491494076821816
1.056762,3.2217618092651374,1.056762,1774896433.6217618,415.534000106561,0.3964001065610221,33.49817,-99.33435,26.0,3.0,2.875860962226976,4.388836357858587,-93.82905595300309,4.052,0.0,0.0,True,-56.0,4.0,13.129521245229817,5.870478754770182,True,False,False,1.062020676888765,1123217800.0,1123223058.6768887,False,96936.36130471146,24.9727989963758,1.057309,1123217800.0,1123218347.0,False,-3.4359198,-0.24965648,58.852474,-0.9322613,-0.20645969,-0.6491774,1.0575013853124409,1123217800.0,1123218539.3853126,False,-3.352053143439677,2.769213570152913,125.26864713800263,-0.9345361942948839,-0.2637623119803663,-0.7439681650934492
1.066967,3.2319668092651375,1.066967,1774896433.6319668,415.6055411362207,0.4679411362207584,33.49817,-99.33435,26.0,3.0,2.9380705532354425,5.4463994050025155,-95.15570405521777,4.052,0.0,0.0,True,-56.0,4.0,12.721321829163767,6.278678170836234,True,False,False,1.0718883106796115,1123228005.0,1123232926.3106797,False,96927.96601941748,24.968203883495146,1.068036,1123228005.0,1123229074.0,False,-2.624087,0.76333815,58.852474,-0.8620224,-0.26818475,-0.793912,1.067834501699075,1123228005.0,1123228872.501699,False,-3.979002337134223,3.1933263959977323,125.50374552388145,-0.9298286973437795,-0.25670109545214276,-0.7404375086652822
1.077993,3.2429928092651377,1.077993,1774896433.642993,415.68283769604716,0.5452376960471425,33.49817,-99.33435,26.0,3.0,3.005284953084472,6.589044202436019,-96.58908200475415,4.052,0.0,0.0,True,-56.0,4.0,12.280282460075645,6.719717539924355,True,False,False,1.0820475016754016,1123239031.0,1123243085.5016754,False,96896.2303892087,24.963467222269955,1.078778,1123239031.0,1123239816.0,False,-2.4983609,2.0834641,58.852474,-0.96844494,-0.2320011,-0.7407007,1.0785822127312295,1123239031.0,1123239620.2127311,False,-0.5989685370892639,4.737980496708362,129.16839204842216,-0.9465293531556037,-0.2673585905331881,-0.7319724726931448
1.088778,3.2537778092651375,1.088778,1774896433.6537778,415.75844475189035,0.6208447518903819,33.49817,-99.33435,26.0,3.0,3.071030219035115,7.706713723596948,-97.99112999910841,4.052,0.0,0.0,True,-56.0,4.0,11.84888307719741,7.15111692280259,True,False,False,1.092220264672792,1123249816.0,1123253258.2646728,False,96870.5826926683,24.96,1.089484,1123249816.0,1123250522.0,False,-3.4987829,3.2257774,58.852474,-0.8747931,-0.29159772,-0.8066827,1.0896764057252957,1123249816.0,1123250714.4057252,False,-4.433171297825483,2.402296482493796,125.16683889622898,-0.9519029193228736,-0.26273764575006875,-0.6998766817506193
1.099668,3.2646678092651378,1.099668,1774896433.6646678,415.83478789868064,0.6971878986806348,33.49817,-99.33435,26.0,3.0,3.1374155640701176,8.835264589191993,-99.40682797393623,4.052,0.0,0.0,True,-56.0,4.0,11.413283700327314,7.586716299672686,True,False,False,1.1031996022876431,1123260706.0,1123264237.6022875,False,96860.88318019877,24.96,1.100238,1123260706.0,1123261276.0,False,-3.7556238,2.3834112,58.852474,-0.97270185,-0.31075376,-0.84712327,1.1004266135420597,1123260706.0,1123261464.613542,False,-5.6107008789136215,4.519995875990196,130.0542808317616,-0.9612876018294984,-0.26614438164654847,-0.6899991711505091
1.109879,3.2748788092651377,1.109879,1774896433.6748788,415.90637099068016,0.7687709906802002,33.49817,-99.33435,26.0,3.0,3.199661731026261,9.893449427446436,-100.73425607503509,4.052,0.0,0.0,True,-56.0,4.0,11.004844284604587,7.995155715395413,True,False,False,1.113426932672544,1123270917.0,1123274464.9326725,False,96848.66948339652,24.96,1.110991,1123270917.0,1123272029.0,False,-5.5912275,3.8077104,58.852474,-1.0280416,-0.28095546,-0.6108653,1.1107810913806113,1123270917.0,1123271819.0913806,False,-7.555395650886487,5.699716404139965,129.50589697755564,-0.9495230931252356,-0.25555632381271204,-0.6747052424292718
1.120982,3.285981809265137,1.120982,1774896433.685982,415.98420735053435,0.8466073505343933,33.49817,-99.33435,26.0,3.0,3.2673455222038204,11.044073877464944,-102.17764401025207,4.052,0.0,0.0,True,-56.0,4.0,10.56072491992244,8.43927508007756,True,False,False,1.12431946608505,1123282020.0,1123285357.466085,False,96824.83350842736,24.96,1.121741,1123282020.0,1123282779.0,False,-5.174535,4.0771236,58.852474,-0.77901286,-0.20007434,-0.58106697,1.121551995401677,1123282020.0,1123282589.9954016,False,-3.4480918028131544,7.312740557208523,127.74581628671899,-0.9384823718149853,-0.24573967210170422,-0.6851975067784689
1.131772,3.2967718092651372,1.131772,1774896433.6967719,416.05984945832745,0.9222494583274907,33.49817,-99.33435,26.0,3.0,3.3331212681108617,12.162261557884644,-103.5803420036765,4.052,0.0,0.0,True,-56.0,4.0,10.129125537330307,8.870874462669693,True,False,False,1.1350720651230806,1123292810.0,1123296110.065123,False,96804.70036558616,24.96,1.132469,1123292810.0,1123293507.0,False,-5.6343336,3.8867383,58.852474,-1.0344269,-0.19156054,-0.77901286,1.1326576313613816,1123292810.0,1123293695.6313615,False,-4.225474348337318,5.307362152480241,129.91062048410802,-0.9430687217343376,-0.2356653650284769,-0.699087030644865
1.142652,3.3076518092651375,1.142652,1774896433.7076519,416.25740161666903,1.1198016166690394,33.49817,-99.33435,26.0,3.0,3.259508471109846,13.709589875572007,-90.76227485400534,4.052,0.0,0.0,True,-56.0,3.9234813575376033,9.923481357537604,9.153037284924794,True,False,False,1.1464781660248597,1123303690.0,1123307516.166025,False,96794.6238362174,24.96,1.14322,1123303690.0,1123304258.0,False,-4.599786,3.9406211,58.852474,-1.0344269,-0.20433125,-0.70664555,1.1434067185887211,1123303690.0,1123304444.7185888,False,-5.030558974336125,3.7595013110444135,130.82612026649142,-0.9367703792530729,-0.22827272242657398,-0.7135330168527728
1.152924,3.3179238092651375,1.152924,1774896433.7179239,416.49221976060903,1.3546197606090735,33.49817,-99.33435,26.0,3.0,3.134272127675161,15.337662340222911,-72.99169790666241,4.052,0.0,0.0,True,-56.0,3.8207612595760834,9.820761259576082,9.358477480847833,True,False,False,1.1572081814671813,1123313962.0,1123318246.1814673,False,96783.93436293436,24.961505791505793,1.153976,1123313962.0,1123315014.0,False,-5.7762246,5.2284174,58.852474,-0.84499484,-0.19156054,-0.7470861,1.1537741420662475,1123313962.0,1123314812.1420662,False,-5.874693852069065,6.836210231303376,123.70402998217132,-0.9202840554020831,-0.2176743741334334,-0.7158881839429484
1.163961,3.3289608092651375,1.163961,1774896433.728961,416.74452582122683,1.6069258212268829,33.49817,-99.33435,26.0,3.0,2.9997088953456625,17.08698436050639,-53.89766969717817,4.052,0.0,0.0,True,-56.0,3.710391154318949,9.710391154318948,9.579217691362102,True,False,False,1.168642023407336,1123324999.0,1123329680.0234072,False,96769.55217181468,24.96683252895753,1.164729,1123324999.0,1123325767.0,False,-5.9702024,5.7726326,58.852474,-0.8896923,-0.236258,-0.7853982,1.1645351030264588,1123324999.0,1123325573.1030264,False,-3.555551848831111,7.16867694083001,126.39437083001086,-0.8995681520134108,-0.20307162129394715,-0.7039370508979703
1.174752,3.3397518092651373,1.174752,1774896433.7397518,416.9912083164816,1.8536083164816426,33.49817,-99.33435,26.0,3.0,2.8681448978764577,18.797316327606055,-35.229221893558986,4.052,0.0,0.0,True,-56.0,3.6024810514078554,9.602481051407855,9.795037897184288,True,False,False,1.1797311558969512,1123335790.0,1123340769.155897,False,96758.60170172536,24.968001418104468,1.175441,1123335790.0,1123336479.0,False,-6.0869484,6.2485967,58.852474,-0.8151965,-0.2490287,-0.7364439,1.1756289008324285,1123335790.0,1123336666.9008324,False,-7.585112653003957,6.036351188698922,127.82001221932681,-0.8954430998425623,-0.18666875040083228,-0.680311885606225
1.185797,3.3507968092651375,1.185797,1774896433.7507968,417.2436972572738,2.10609725727386,33.49817,-99.33435,26.0,3.0,2.7334841294539416,20.547906317098764,-16.121353670875877,4.052,0.0,0.0,True,-56.0,3.492030946074427,9.492030946074427,10.015938107851145,True,False,False,1.1909385286220753,1123346835.0,1123351976.5286222,False,96752.33651619003,24.962780430158354,1.186201,1123346835.0,1123347239.0,False,-4.730901,6.7497053,58.852474,-0.9471604,-0.12132168,-0.732187,1.1863892863086234,1123346835.0,1123347427.2863085,False,-5.190078492284422,10.461815720877462,126.265000892587,-0.8903836611932677,-0.17211359413199695,-0.669314959795764
1.195991,3.3609908092651377,1.195991,1774896433.7609909,417.4767323195134,2.3391323195134146,33.49817,-99.33435,26.0,3.0,2.6091987629261792,22.163616081959674,1.5142831477780874,4.052,0.0,0.0,True,-56.0,3.390090848856774,9.390090848856774,10.219818302286452,True,False,False,1.2011887277723894,1123357029.0,1123362226.7277725,False,96738.84287099903,24.958008406078243,1.196907,1123357029.0,1123357945.0,False,-4.9536157,5.722342,58.852474,-0.8151965,-0.10003717,-0.5363695,1.1967085907715582,1123357029.0,1123357746.5907717,False,-7.15973973071107,11.794912552193663,128.9173532314675,-0.8762524311081692,-0.16387038220499234,-0.6587164769894098
1.206703,3.3717028092651375,1.206703,1774896433.771703,417.72160887304585,2.5840088730458954,33.49817,-99.33435,26.0,3.0,2.4785979343755224,23.86142685311821,20.046060821058575,4.052,0.0,0.0,True,-56.0,3.2829707466990836,9.282970746699084,10.434058506601833,True,False,False,1.2118255245947072,1123367741.0,1123372863.5245948,False,96713.61022585562,24.953060828599142,1.207657,1123367741.0,1123368695.0,False,-5.9091353,5.381085,58.852474,-0.8769216,-0.10855097,-0.6619481,1.2078414526057744,1123367741.0,1123368879.4526057,False,-7.4464354483384785,7.019726387416015,130.82278146177592,-0.8572983975485746,-0.15012609597875431,-0.6082121507118213
1.217715,3.3827148092651376,1.217715,1774896433.7827148,417.97334343311866,2.835743433118681,33.49817,-99.33435,26.0,3.0,2.3443395023367035,25.606786469622854,39.09683898929646,4.052,0.0,0.0,True,-56.0,3.172850641680367,9.172850641680368,10.654298716639266,True,False,False,1.2224251460078648,1123378753.0,1123383463.1460078,False,96690.50299196444,24.95,1.218406,1123378753.0,1123379444.0,False,-5.900155,7.4160547,58.852474,-0.92587596,-0.236258,-0.63002133,1.2185949554404147,1123378753.0,1123379632.9554405,False,-5.848425433160663,8.898136308808295,130.94906315025906,-0.8365625585492226,-0.1412902857305696,-0.5954942112746109
1.227944,3.3929438092651374,1.227944,1774896433.792944,418.20717859612125,3.0695785961212656,33.49817,-99.33435,26.0,3.0,2.219627415401992,27.22804359977411,56.793025865695085,4.052,0.0,0.0,True,-56.0,3.0705605441289303,9.07056054412893,10.85887891174214,True,False,False,1.2318007091810566,1123388982.0,1123392838.709181,False,96673.0145323987,24.95,1.229132,1123388982.0,1123390170.0,False,-7.423239,7.5741105,58.852474,-0.7385723,-0.14473464,-0.62363595,1.2289309190767779,1123388982.0,1123389968.9190767,False,-8.486273014978789,9.248619526990106,130.39566605934996,-0.8189029585492229,-0.11774420700329735,-0.5566432261837025
1.238938,3.4039378092651376,1.238938,1774896433.803938,418.5173154824736,3.37971548247359,33.49816960620533,-99.33434960620534,26.03937946683007,3.0,2.2296228919184453,28.838517321082033,69.35441520147064,4.052,0.10704914263086512,0.03262857867388769,True,-56.0,2.960620533169929,9.118138400490214,10.921241066339858,True,False,False,1.242078374437781,1123399976.0,1123403116.3744378,False,96656.65273613193,24.95,1.23985,1123399976.0,1123400888.0,False,-5.578655,7.7734766,58.852474,-0.77901286,-0.07236732,-0.6215075,1.2396521682124022,1123399976.0,1123400690.1682124,False,-6.090291473267856,7.606681274049819,128.23822816875793,-0.7945758507001273,-0.08850580802145831,-0.541497207601382
1.249628,3.4146278092651374,1.249628,1774896433.814628,418.9213455925039,3.7837455925038768,33.498168537206865,-99.33434853720686,26.14627931390861,3.0,2.490287479034759,30.174423330053145,70.31651382517751,4.052,0.3976456869291704,0.12120240537601112,True,-56.0,2.853720686091388,9.438837941725836,10.707441372182776,True,False,False,1.252847507683658,1123410666.0,1123413885.5076838,False,96650.14177286357,24.95,1.2506,1123410666.0,1123411638.0,False,-6.297091,8.70924,58.852474,-0.83648103,-0.119193226,-0.4640022,1.250782611960311,1123410666.0,1123411820.6119604,False,-7.486471157772447,14.70876532537766,134.1530397908287,-0.7778273519218738,-0.08257968298560853,-0.5185714349432381
1.260424,3.4254238092651375,1.260424,1774896433.825424,419.3293819880031,4.191781988003132,33.4981674576084,-99.3343474576084,26.254239159470814,3.0,2.7535367664536334,31.523575928074873,71.28815243523732,4.052,0.6911237311054614,0.2106545132409446,True,-56.0,2.7457608405291856,9.762717478412442,10.491521681058371,True,False,False,1.2636987928747043,1123421462.0,1123424736.7928748,False,96640.08605093473,24.95,1.261352,1123421462.0,1123422390.0,False,-6.5323787,8.7128315,58.852474,-0.77475595,-0.10642252,-0.3384236,1.2611588157683025,1123421462.0,1123422196.8157682,False,-3.505426712040804,15.937254971574134,126.64355758970243,-0.7542467242826497,-0.05428296842048837,-0.48084253687583844
1.2709,3.4358998092651376,1.2709,1774896433.8358998,419.72532393680365,4.587723936803629,33.4981664100099,-99.3343464100099,26.358999009610645,3.0,3.008983185034599,32.83273882330232,72.2309910864958,4.052,0.9759029077255796,0.29745520627475663,True,-56.0,2.641000990389354,10.076997028831938,10.282001980778709,True,False,False,1.2741427190239827,1123431938.0,1123435180.719024,False,96618.217516352,24.95,1.272099,1123431938.0,1123433137.0,False,-6.318644,10.3059635,58.852474,-0.7981689,-0.046825908,-0.38099262,1.2718938066825776,1123431938.0,1123432931.8066826,False,-9.209957202386645,10.876229639618128,129.58788803818615,-0.7358316389976133,-0.038176889747016676,-0.4621640389976133
1.281949,3.4469488092651375,1.281949,1774896433.8469489,420.1429225042241,5.00532250422409,33.498165305111485,-99.33434530511148,26.46948885155366,3.0,3.278401615628445,34.21350828009578,73.22539966398294,4.052,1.2762584940634694,0.3890035889905454,True,-56.0,2.5305111484463403,10.40846655466098,10.06102229689268,True,False,False,1.285276298553266,1123442987.0,1123446314.2985532,False,96598.8689171416,24.951131082858396,1.282843,1123442987.0,1123443881.0,False,-6.140831,10.641832,58.852474,-0.6172506,0.06172506,-0.36183658,1.2826399347079038,1123442987.0,1123443677.9347079,False,-5.594452073024021,12.528581017182146,127.69002379037799,-0.6983239248109961,-0.0234899734776631,-0.4474304537800686
1.292432,3.4574318092651373,1.292432,1774896433.857432,420.53912901904613,5.401529019046125,33.498164256812984,-99.33434425681298,26.574318701593356,3.0,3.534018721965241,35.52354595007186,74.16886831434022,4.052,1.561227958411381,0.4758622817237889,True,-56.0,2.4256812984066434,10.72295610478007,9.851362596813287,True,False,False,1.296261771737542,1123453470.0,1123457299.7717376,False,96593.76248234205,24.956237517657947,1.293581,1123453470.0,1123454619.0,False,-7.538189,8.7200165,58.852474,-0.69387484,0.05746816,-0.39802024,1.2933840101280338,1123453470.0,1123454422.010128,False,-7.801093079610173,13.66161540359259,128.41335750735718,-0.6616285834129562,0.0043714278299255595,-0.40157928602331344
1.303521,3.4685208092651374,1.303521,1774896433.868521,420.95823939230394,5.820639392303923,33.49816314791457,-99.33434314791457,26.685208542964165,3.0,3.8044125111638207,36.90931411971459,75.16687688667749,4.052,1.8626709031937871,0.5677420912934663,True,-56.0,2.3147914570358346,11.055625628892496,9.629582914071669,True,False,False,1.3078426968849455,1123464559.0,1123468880.6968849,False,96585.61891214196,24.956754749734788,1.304356,1123464559.0,1123465394.0,False,-6.045638,11.3027935,58.852474,-0.64492047,0.008513802,-0.3341667,1.3041637106804866,1123464559.0,1123465201.7106805,False,-10.884728594808433,12.08407736475892,128.32417881388014,-0.6285581176457868,0.02648561868823767,-0.3875284012699416
1.313942,3.4789418092651374,1.313942,1774896433.878942,421.3521026080781,6.214502608078074,33.49816210581606,-99.33434210581606,26.789418393890777,3.0,4.058517811663274,38.211603784774276,76.104765545017,4.052,2.145954961952691,0.6540870724031801,True,-56.0,2.210581606109222,11.368255181672334,9.421163212218444,True,False,False,1.318640577490597,1123474980.0,1123479678.5774906,False,96572.05121033851,24.946704600250747,1.315102,1123474980.0,1123476140.0,False,-7.020915,9.865921,58.852474,-0.55978245,0.117064774,-0.38312107,1.314893780143885,1123474980.0,1123475931.780144,False,-7.800424230743417,11.613906517985614,127.92808543002397,-0.6028102888786572,0.0592256258013428,-0.3693177127482015
1.324969,3.4899688092651378,1.324969,1774896433.8899689,421.768869682288,6.631269682287996,33.49816100311764,-99.33434100311764,26.899688236148503,3.0,4.3273997950245136,39.589623949500634,77.09719412533654,4.052,2.4457125011460947,0.7454531703493296,True,-56.0,2.1003117638514954,11.699064708445514,9.20062352770299,True,False,False,1.329987315495359,1123486007.0,1123491025.3154953,False,96562.03509187346,24.94192981625308,1.325844,1123486007.0,1123486882.0,False,-7.017323,11.597352,58.852474,-0.51295656,0.031926755,-0.42781854,1.3256472208216197,1123486007.0,1123486685.2208216,False,-6.21624349909314,15.025318661467297,125.9377552182824,-0.560335867604063,0.07545634374136206,-0.34977298827786346
1.335433,3.5004328092651376,1.335433,1774896433.9004328,422.1689753419819,7.03137534198186,33.49816004328097,-99.33434,27.0,3.0,4.578596019491151,40.88145691304868,78.05626525812661,4.052,2.7166432255174158,0.8280328551377084,True,-56.0,2.0,12.0,8.99567190322103,True,False,False,1.3406267396287177,1123496471.0,1123501664.7396288,False,96559.55734987686,24.946885300246258,1.336575,1123496471.0,1123497613.0,False,-6.4066525,12.5762205,58.852474,-0.5448833,0.15963379,-0.557654,1.3363708637797536,1123496471.0,1123497408.8637798,False,-7.877898197677112,14.83093607284198,129.08838577956226,-0.5176054355654329,0.07694577898384478,-0.43930164245674547
1.346443,3.5114428092651373,1.346443,1774896433.911443,422.70255568284375,7.564955682843725,33.498161144282015,-99.33434,27.0,3.0,4.746388579510605,41.854653761161515,79.48756662312196,4.052,2.671953592898061,0.8144114551153291,True,-56.0,2.0,12.0,8.885571798221388,True,False,False,1.3513448525852585,1123507481.0,1123512382.8525853,False,96553.31078107811,24.948124312431244,1.347314,1123507481.0,1123508352.0,False,-6.200102,12.03919,58.852474,-0.42781854,0.055339713,-0.6534343,1.34712373060149,1123507481.0,1123508161.7306015,False,-7.149133013674356,15.502852211248413,134.26003300018175,-0.4891900612574958,0.10457096365391619,-0.5010488936580051
1.356908,3.5219078092651372,1.356908,1774896433.921908,423.20972355451676,8.072123554516695,33.49816219078301,-99.33434,27.0,3.0,4.905875331609024,42.77967692333234,80.84801792054941,4.052,2.629476117388384,0.8014643205799795,True,-56.0,2.0,12.0,8.780921698419276,True,False,False,1.360860501650165,1123517946.0,1123521898.50165,False,96542.2409240924,24.943696369636964,1.358068,1123517946.0,1123519106.0,False,-7.058633,11.485994,58.852474,-0.42781854,0.21284504,-0.538498,1.3578625749761224,1123517946.0,1123518900.5749762,False,-6.35615510983763,15.665276689589303,128.3905287583572,-0.4395581069914039,0.11585436036294176,-0.5440749786055398
1.367894,3.532893809265137,1.367894,1774896433.932894,423.7421407774694,8.604540777469325,33.49816328938406,-99.33434,27.0,3.0,5.073302131279662,43.75075236142204,82.2761992825693,4.052,2.5848839008619326,0.7878726129827172,True,-56.0,2.0,12.0,8.671061593648517,True,False,False,1.3710535805369126,1123528932.0,1123532091.5805368,False,96528.28104026846,24.94,1.368804,1123528932.0,1123529842.0,False,-5.5301604,11.893706,58.852474,-0.4469746,0.20858814,-0.5299842,1.3686066326902073,1123528932.0,1123529644.6326902,False,-9.455533698398243,14.719273514379326,131.28564600473243,-0.40502165813614865,0.14724542241354197,-0.565279381761922
1.378731,3.5437308092651376,1.378731,1774896433.9437308,424.2673369767355,9.12973697673545,33.498164373085096,-99.33434,27.0,3.0,5.2384581687847325,44.70865737895145,83.68501062611648,4.052,2.5408964759122554,0.7744652458580554,True,-56.0,2.0,12.0,8.562691490298732,True,False,False,1.3818885602162563,1123539769.0,1123542926.5602162,False,96505.5524328859,24.94,1.379515,1123539769.0,1123540553.0,False,-7.3693566,13.127621,58.852474,-0.43633235,0.08726647,-0.64279205,1.379697845900178,1123539769.0,1123540735.8459003,False,-9.33522459001783,15.91302473199643,128.07180531283421,-0.3633477789126566,0.15172335510160406,-0.6823495321417107
1.389545,3.5545448092651375,1.389545,1774896433.954545,424.79141852133864,9.653818521338565,33.49816545448613,-99.33434,27.0,3.0,5.4032636859555225,45.664529378542035,85.0908319668122,4.052,2.4970024080516096,0.7610863339741307,True,-56.0,2.0,12.0,8.454551387168292,True,False,False,1.393246632454845,1123550583.0,1123554284.6324549,False,96486.12521299557,24.9406943655572,1.390256,1123550583.0,1123551294.0,False,-7.944105,12.260109,58.852474,-0.34693742,0.18730363,-0.76624215,1.390050178698752,1123550583.0,1123551088.1786988,False,-8.975451869875226,16.22667217602495,129.06348381016042,-0.3221344876114085,0.16467609828876997,-0.7176751980080212
1.399913,3.564912809265137,1.399913,1774896433.964913,425.29388545812844,10.156285458128373,33.498166491287115,-99.33434,27.0,3.0,5.561272156644142,46.58097850853603,86.43867325221382,4.052,2.4549186559174165,0.7482592063236286,True,-56.0,2.0,12.0,8.350871288291245,True,False,False,1.4059283818584574,1123560951.0,1123566966.3818583,False,96478.17519595592,24.94363881631262,1.401007,1123560951.0,1123562045.0,False,-6.63296,12.057151,58.852474,-0.29372615,0.16176224,-0.8896923,1.4007921875482623,1123560951.0,1123561830.1875482,False,-7.945874259652517,15.07916263281854,134.31258301158297,-0.2710276830077224,0.1840907335685327,-0.8345175303967174
1.410906,3.5759058092651372,1.410906,1774896433.975906,425.8266419238046,10.689041923804533,33.49816759058817,-99.33434,27.0,3.0,5.728805636416519,47.55267269121582,87.86776461510155,4.052,2.410298026363868,0.734658838435707,True,-56.0,2.0,12.0,8.240941183453728,True,False,False,1.4193746078609566,1123571944.0,1123580412.607861,False,96469.74593888447,24.946760763376123,1.411787,1123571944.0,1123572825.0,False,-7.3298426,13.9951315,58.852474,-0.17240448,0.21710195,-0.8109396,1.4115782410219109,1123571944.0,1123572616.2410219,False,-7.305556727702519,16.440065610510043,133.92645072461133,-0.2400506521574689,0.1964620073306664,-0.8860063286807891
1.42178,3.5867798092651375,1.42178,1774896433.98678,426.3536312631808,11.216031263180732,33.498168677989206,-99.33434,27.0,3.0,5.894525554459349,48.51384821586423,89.28138596323592,4.052,2.3661604182709643,0.72120569548899,True,-56.0,2.0,12.0,8.132201079751082,True,False,False,1.4326752775190277,1123582818.0,1123593713.277519,False,96461.40792911507,24.949848915142564,1.422574,1123582818.0,1123583612.0,False,-5.4690933,14.140615,58.852474,-0.20858814,0.29798305,-0.9471604,1.4227635495363145,1123582818.0,1123583801.5495362,False,-5.999299718804511,16.31603354044625,132.09724955651456,-0.19697266036727587,0.21896974650353498,-0.9380580559636396
1.43267,3.5976698092651374,1.43267,1774896433.99767,426.8813960144965,11.743796014496425,33.498169766990245,-99.33434,27.0,3.0,6.060489312734725,49.476438013861404,90.69708731335395,4.052,2.3219578661161258,0.7077327575921951,True,-56.0,2.0,12.0,8.02330097589585,True,False,False,1.4414511060727566,1123593708.0,1123602489.1060727,False,96453.44878617773,24.95,1.433326,1123593708.0,1123594364.0,False,-6.83951,12.759422,58.852474,-0.15750533,0.28946927,-0.793912,1.433518776660716,1123593708.0,1123594556.7766607,False,-8.251010662191101,13.493358465752141,131.2073289373297,-0.14333104016160833,0.23479151249459745,-0.993639629061355
1.442924,3.6079238092651376,1.442924,1774896434.0079238,427.4580400195833,12.320440019583236,33.49817,-99.33434,26.92076087810599,3.0,6.3133687591796415,50.4311146149521,92.0301085846221,4.052,2.496572480159779,0.7609552919527008,True,-56.0,2.0,11.920760878105993,7.920760878105993,True,False,False,1.449494631624991,1123603962.0,1123610532.631625,False,96445.9733906831,24.95,1.444068,1123603962.0,1123605106.0,False,-6.482088,12.552872,58.852474,-0.04895436,0.28734082,-0.9790872,1.4438681582260642,1123603962.0,1123604906.158226,False,-5.968699081602915,14.148082580005642,129.1140600544959,-0.09860213449215412,0.24656227207366352,-1.0136499107112658
1.453958,3.6189578092651375,1.453958,1774896434.0189579,428.10376796979745,12.966167969797397,33.49817,-99.33434,26.810420772877467,3.0,6.616053735842529,51.47369620123538,93.46452995259291,4.052,2.752892544605641,0.8390816475957996,True,-56.0,2.0,11.810420772877467,7.810420772877468,True,False,False,1.4590558464255834,1123614996.0,1123620093.8464255,False,96438.65064609091,24.95,1.454846,1123614996.0,1123615884.0,False,-4.921286,13.237182,58.852474,-0.05321126,0.38099262,-1.0514545,1.4546545126903556,1123614996.0,1123615692.5126903,False,-8.472365898223384,13.902190337563448,133.6849512690356,-0.047337406598984146,0.26718999979695457,-1.0416368649746197
1.464433,3.6294328092651376,1.464433,1774896434.029433,428.7167823144135,13.579182314413433,33.49817,-99.33434,26.705670672979988,3.0,6.903404209881296,52.46345894514669,94.82628125126016,4.052,2.9962270266674875,0.9132499977282502,True,-56.0,2.0,11.705670672979988,7.705670672979989,True,False,False,1.469525490610765,1123625471.0,1123630563.4906108,False,96432.80793901645,24.95,1.465595,1123625471.0,1123626633.0,False,-6.6886387,12.987525,58.852474,-0.027669856,0.25115716,-1.1876754,1.465394880179492,1123625471.0,1123626432.8801794,False,-7.663676644452926,13.808278854687797,130.35866437082296,0.005130591349217388,0.27475287699541723,-1.1128762094042395
1.475434,3.6404338092651374,1.475434,1774896434.040434,429.36057904998586,14.222979049985835,33.49817,-99.33434,26.59566056806618,3.0,7.205183929680859,53.502922424456294,96.25641261513968,4.052,3.2517805003822677,0.9911426965165153,True,-56.0,2.0,11.595660568066178,7.595660568066179,True,False,False,1.4805276678160382,1123636472.0,1123641565.667816,False,96428.22203066027,24.946110153301337,1.476349,1123636472.0,1123637387.0,False,-4.894345,14.108286,58.852474,-0.019156054,0.32778138,-1.266428,1.4761593385454543,1123636472.0,1123637197.3385456,False,-5.973818289309095,15.047715024181816,132.21678981636362,0.03851361014565445,0.2844908248272727,-1.2018315779818178
1.485947,3.6509468092651374,1.485947,1774896434.050947,429.9758172175227,14.838217217522672,33.49817,-99.33434,26.490530467806302,3.0,7.493576820713752,54.49627571579181,97.62310391851807,4.052,3.495997723285961,1.065580106057561,True,-56.0,2.0,11.490530467806302,7.490530467806302,True,False,False,1.4910524245841292,1123646985.0,1123652090.4245842,False,96426.26256931177,24.936312846558874,1.487086,1123646985.0,1123648124.0,False,-6.697619,13.517372,58.852474,0.021284504,0.35119432,-1.4771446,1.4868818551193077,1123646985.0,1123647919.8551192,False,-7.2254122912158705,13.323585464682989,129.23263708242234,0.08943244094875843,0.3038392353930979,-1.3184606142599085
1.496946,3.661945809265138,1.496946,1774896434.061946,430.6194969097835,15.481896909783474,33.49817,-99.33434,26.38054036291156,3.0,7.795301676461003,55.53555021892124,99.0529752821497,4.052,3.7515047369564423,1.1434586438243237,True,-56.0,2.0,11.380540362911562,7.380540362911562,True,False,False,1.501729083144045,1123657984.0,1123662767.083144,False,96418.84348347834,24.93181074015343,1.497834,1123657984.0,1123658872.0,False,-5.1493893,12.892333,58.852474,0.23838645,0.32990983,-1.4239334,1.497642403092315,1123657984.0,1123658680.4030924,False,-4.274940408385593,14.44131898426559,132.23406274488408,0.1312064069913602,0.3150104598390179,-1.4058871963710788
1.507443,3.6724428092651378,1.507443,1774896434.072443,431.23379873082735,16.096198730827343,33.49817,-99.33434,26.275570262804273,3.0,8.083255655075316,56.52739170081498,100.41758658354445,4.052,3.9953502795056726,1.2177827651933293,True,-56.0,2.0,11.275570262804274,7.2755702628042735,True,False,False,1.51140640569151,1123668481.0,1123672444.4056916,False,96403.54763639481,24.93630951870741,1.508597,1123668481.0,1123669635.0,False,-6.916742,13.326986,58.852474,0.16814758,0.4597453,-1.5005575,1.508397039538872,1123668481.0,1123669435.0395389,False,-6.959135392054131,16.96088281088035,128.32085906345273,0.1763110966530109,0.331992928958651,-1.4374093511147106
1.518426,3.6834258092651373,1.518426,1774896434.083426,431.8765420765952,16.738942076595162,33.49817,-99.33434,26.165740158062125,3.0,8.384541598403981,57.565154394502606,101.84537794519238,4.052,4.250485612821686,1.29554801478805,True,-56.0,2.0,11.165740158062125,7.165740158062124,True,False,False,1.5216832341001976,1123679464.0,1123682721.2341,False,96390.23754419801,24.94,1.519345,1123679464.0,1123680383.0,False,-4.9572077,12.07152,58.852474,0.2575425,0.24690025,-1.5388696,1.519147448043676,1123679464.0,1123680185.4480436,False,-5.939898291537765,16.51962500837125,131.76898871155595,0.22392263265878057,0.34310416762147405,-1.529121755486806
1.528909,3.6939088092651375,1.528909,1774896434.0939088,432.4900245944577,17.352424594457684,33.49817,-99.33434,26.06091005808835,3.0,8.672111528652039,58.5556730431348,103.20816924485145,4.052,4.494005935060764,1.369773009006521,True,-56.0,2.0,11.06091005808835,7.06091005808835,True,False,False,1.5320170064747212,1123689947.0,1123693055.0064747,False,96386.86788813886,24.94,1.530071,1123689947.0,1123691109.0,False,-4.436342,12.7217045,58.852474,0.35970813,0.45335993,-1.521842,1.5298703417963158,1123689947.0,1123690908.3417964,False,-3.8347672949126386,13.420431533263299,131.9570523947695,0.2835432707416253,0.3516983901593969,-1.5775844293404608
1.539899,3.7048988092651376,1.539899,1774896434.104899,433.21082398760177,18.073223987601793,33.4981695101007,-99.3343390202014,25.804040280322603,3.0,9.078114090230684,59.713553094937296,103.95101007008066,4.052,4.868716561381064,1.4839848079089486,True,-55.06919133153236,2.0,10.902020140161301,6.951010070080651,True,False,False,1.542980371716778,1123700937.0,1123704018.3717167,False,96382.38760294333,24.94,1.540812,1123700937.0,1123701850.0,False,-5.654091,12.26909,58.852474,0.28946927,0.29159772,-1.5984663,1.5406012773841962,1123700937.0,1123701639.2773843,False,-5.704562359836514,15.271066873569483,131.1289380708447,0.3110139912261581,0.39976885780926436,-1.5281697796730247
1.550754,3.7157538092651374,1.550754,1774896434.115754,434.0181222087524,18.88052220875243,33.498168424602255,-99.3343368492045,25.36984090144979,3.0,9.607489972952413,61.0039068090715,103.84246022536244,4.052,5.385468097162065,1.6414906760149979,True,-53.00674428188652,2.0,10.684920450724896,6.842460225362448,True,False,False,1.5543622261585694,1123711792.0,1123715400.2261586,False,96373.92407777399,24.94,1.551568,1123711792.0,1123712606.0,False,-2.8647633,11.020807,58.852474,0.4342039,0.4044056,-1.6197507,1.5517523860231452,1123711792.0,1123712790.386023,False,-2.639516756562319,11.63143928563741,128.84365435543197,0.3499591823181126,0.3915189662402442,-1.5087114978379834
1.561509,3.7265088092651375,1.561509,1774896434.126509,434.81798332054194,19.680383320541935,33.498167349103795,-99.33433469820758,24.939641516854945,3.0,10.131989062650451,62.28237334021047,103.73491037921373,4.052,5.897459139753008,1.797545545796717,True,-50.963297205061,2.0,10.469820758427472,6.734910379213736,True,False,False,1.5655911725399578,1123722547.0,1123726629.17254,False,96366.6321490468,24.94151983439245,1.562329,1123722547.0,1123723367.0,False,-4.3106155,12.021229,58.852474,0.4044056,0.4640022,-1.5622826,1.5621349602583656,1123722547.0,1123723172.9602585,False,-5.7516115174397004,15.265293955952309,132.06195326993813,0.38060712122544216,0.42334567128644507,-1.5016389781914417
1.571924,3.7369238092651376,1.571924,1774896434.1369238,435.5925582605036,20.454958260503602,33.49816630760528,-99.33433261521057,24.52304211280517,3.0,10.639907056067935,63.52042344916559,103.6307605282013,4.052,6.393264505497746,1.9486670212757131,True,-48.984450035824565,2.0,10.261521056402586,6.630760528201293,True,False,False,1.5763531386481804,1123732962.0,1123737391.1386483,False,96362.11958405546,24.946533795493934,1.573057,1123732962.0,1123734095.0,False,-2.6815622,10.054511,58.852474,0.39376333,0.38312107,-1.4984291,1.5728519801210026,1123732962.0,1123733889.980121,False,-3.2373581274368166,12.141159853932535,133.1407338922501,0.4219249221876507,0.43472591666378585,-1.4595633861519248
1.582918,3.7479178092651377,1.582918,1774896434.147918,436.4101940636662,21.2725940636662,33.498165208206856,-99.3343304164137,24.083282741886,3.0,11.17606168109259,64.82730034766318,103.5208206854715,4.052,6.9166331268129255,2.10818977705258,True,-46.8955930239585,2.0,10.041641370943,6.5208206854715,True,False,False,1.5876602210156954,1123743956.0,1123748698.2210157,False,96356.30143676799,24.95,1.583793,1123743956.0,1123744831.0,False,-4.653669,9.260639,58.852474,0.45123148,0.42143318,-1.4409609,1.5836005880640467,1123743956.0,1123744638.588064,False,-4.677100643577147,11.14839325309316,132.89268879730713,0.4479152642212518,0.45173373584879917,-1.3963547926128093
1.593732,3.7587318092651376,1.593732,1774896434.158732,437.21444306997876,22.076843069978757,33.498164126808405,-99.3343282536168,23.65072336066716,3.0,11.703438078674596,66.11278031676933,103.41268084016679,4.052,7.431432860385994,2.265100735845651,True,-44.840935963169024,2.0,9.82536168033358,6.41268084016679,True,False,False,1.5986829221395038,1123754770.0,1123759720.9221394,False,96348.60974915834,24.95,1.59453,1123754770.0,1123755568.0,False,-2.482196,10.67955,58.852474,0.5278557,0.4682591,-1.398392,1.594711877870186,1123754770.0,1123755749.87787,False,-3.007427205125667,13.562444518351123,132.73229741457243,0.49364107883746156,0.4499479212059301,-1.3275285989604055
1.604799,3.7697988092651373,1.604799,1774896434.1697989,438.03750796297504,22.899907962974996,33.498163020109985,-99.33432604021998,23.20804399392507,3.0,12.243152762606556,67.42833485885347,103.30201099848126,4.052,7.958276641729927,2.4256827203992817,True,-42.73820897114408,2.0,9.604021996962535,6.302010998481268,True,False,False,1.6098782083391634,1123765837.0,1123770916.2083392,False,96339.9361037265,24.945722214448953,1.605289,1123765837.0,1123766327.0,False,-1.8535647,9.190592,58.852474,0.4767729,0.41717628,-1.2962263,1.6054851707317075,1123765837.0,1123766523.1707318,False,-0.909856204878059,11.605861499999996,131.18153969512193,0.4979147615853665,0.4703215425609756,-1.2265875731707305
1.614903,3.7799028092651374,1.614903,1774896434.1799028,438.78895349282357,23.651353492823535,33.49816200971143,-99.33432401942287,22.803884572079767,3.0,12.735903929720351,68.62941582869335,103.20097114301994,4.052,8.43927687365357,2.5722915910896087,True,-40.818451717378885,2.0,9.401942286039883,6.200971143019942,True,False,False,1.6199892770393172,1123775941.0,1123781027.2770393,False,96330.98241686489,24.936297280910406,1.616013,1123775941.0,1123777051.0,False,-2.559428,9.479762,58.852474,0.46613064,0.50869966,-0.98972946,1.6158086554878048,1123775941.0,1123776846.6554878,False,-1.4442580740853672,11.389335937499999,130.03903490091463,0.5331978025152441,0.46796933983231703,-1.1607259737804876
1.625858,3.7908578092651375,1.625858,1774896434.190858,439.60368882333535,24.4660888233353,33.498160914212995,-99.334321828426,22.365685198928993,3.0,13.270156605465772,69.93165672582282,103.09142129973225,4.052,8.960788902624632,2.731248457519988,True,-38.73700469491273,2.0,9.182842599464497,6.091421299732248,True,False,False,1.6305784004335446,1123786896.0,1123791616.4004335,False,96326.60819483997,24.931786883155524,1.626745,1123786896.0,1123787783.0,False,-2.7857354,5.734915,58.852474,0.55126864,0.50444275,-1.0322984,1.6265538821917809,1123786896.0,1123787591.882192,False,-5.055358855342484,10.36975933835616,131.9576925890411,0.5518958465753425,0.4787225286575343,-1.0682243198630132
1.636679,3.8016788092651375,1.636679,1774896434.201679,440.42995080060206,25.292350800601998,33.49815983211414,-99.33431966422829,21.96642282900125,3.0,13.797874573763355,71.23843791698901,103.20146302599251,4.052,9.482565304551882,2.890285904827414,True,-37.0,2.0,8.983211414500625,6.0,True,False,False,1.6404454856122754,1123797717.0,1123801483.4856124,False,96330.74765163429,24.93638627959366,1.637476,1123797717.0,1123798514.0,False,-0.9124136,6.060007,58.852474,0.6108653,0.5533971,-0.9961148,1.6376519272338148,1123797717.0,1123798689.9272337,False,-0.5004340960317506,9.899759756554312,133.87816499375782,0.5734927563402888,0.46445806187979305,-0.9278124619832356
1.647505,3.8125048092651372,1.647505,1774896434.2125049,441.37368443341654,26.236084433416526,33.49815874951311,-99.33431749902623,21.749902622511488,3.0,14.325837445267986,72.65733813415771,104.50058426493106,4.052,10.040776048903131,3.0604285397056747,True,-37.0,2.0,8.874951311255744,6.0,True,False,False,1.650546604743083,1123808543.0,1123811584.604743,False,96333.6719367589,24.94,1.648198,1123808543.0,1123809236.0,False,-1.758372,5.8857865,58.852474,0.5406264,0.4001487,-0.9237475,1.6480029502407705,1123808543.0,1123809040.9502409,False,0.7469831619047514,8.952646943820232,131.60970576779027,0.6029792701444621,0.47625262878544666,-0.8145843860620663
1.658012,3.8230118092651377,1.658012,1774896434.223012,442.28960991651115,27.15200991651114,33.49815769881211,-99.33431539762422,21.539762422106175,3.0,14.838243309936301,74.03442889545381,105.76142546736294,4.052,10.582538499568068,3.2255577346683473,True,-37.0,2.0,8.769881211053088,6.0,True,False,False,1.66116484486166,1123819050.0,1123822202.8448617,False,96332.18873517787,24.94,1.658938,1123819050.0,1123819976.0,False,-0.2622291,5.8750095,58.852474,0.6066084,0.57893854,-0.708774,1.658739509002572,1123819050.0,1123819777.5090027,False,-1.1506656828998705,8.375833049823761,129.82898514051632,0.5867467126226542,0.47767405026293225,-0.728510215905497
1.668813,3.8338128092651376,1.668813,1774896434.2338128,443.23116422724735,28.093564227247306,33.49815661871108,-99.33431323742217,21.32374221609325,3.0,15.364986980278214,75.4500525094977,107.05754670344048,4.052,11.139460192689986,3.395307466731908,True,-37.0,2.0,8.661871108046626,6.0,True,False,False,1.6721503475754493,1123829851.0,1123833188.3475754,False,96326.96473380807,24.938847066802307,1.669675,1123829851.0,1123830713.0,False,1.3722126,4.0825124,58.852474,0.557654,0.472516,-0.6087368,1.6698703257274827,1123829851.0,1123830908.3257275,False,-0.22861723586697313,7.48983027412471,129.4456805210162,0.5986924174041571,0.45210698119722864,-0.6089753668609699
1.67963,3.8446298092651374,1.67963,1774896434.2446299,444.17411330411363,29.036513304113612,33.49815553701005,-99.3343110740201,21.107402009775157,3.0,15.892510939364257,76.86777314954145,108.35558794134906,4.052,11.697206878598667,3.565308656596874,True,-37.0,2.0,8.553701004887579,6.0,True,False,False,1.6834006982996657,1123840668.0,1123844438.6982996,False,96308.62461851475,24.933607033861357,1.680408,1123840668.0,1123841446.0,False,1.2554668,2.6186988,58.852474,0.5491402,0.4469746,-0.50018585,1.6805984366554052,1123840668.0,1123841636.4366555,False,2.6359286028462847,4.423621814358108,128.656756714527,0.6009613844594596,0.4551853992567568,-0.5051545986486486
1.689881,3.854880809265137,1.689881,1774896434.254881,445.0677225291258,29.93012252912578,33.49815451190907,-99.33430902381815,20.902381814252664,3.0,16.39243218412631,78.21131149483946,109.58570911448403,4.052,12.225769444675212,3.726414526737005,True,-37.0,2.0,8.451190907126332,6.0,True,False,False,1.6940640851208055,1123850919.0,1123855102.085121,False,96292.19716263982,24.928641843799934,1.691145,1123850919.0,1123852183.0,False,1.2877964,2.442682,58.852474,0.63853514,0.37035036,-0.472516,1.690927358108108,1123850919.0,1123851965.358108,False,0.7668026381756747,5.293731812162163,131.48346804054054,0.5939095891891891,0.42697829513513513,-0.4040791229729729
1.700945,3.8659448092651374,1.700945,1774896434.265945,446.0322033081263,30.894603308126324,33.49815340550802,-99.33430681101603,20.681101603223407,3.0,16.93200185070004,79.66140497375636,110.91339038065955,4.052,12.79625195672973,3.900297596411222,True,-37.0,2.0,8.340550801611704,6.0,True,False,False,1.7055780807630851,1123861983.0,1123866616.080763,False,96277.19730789716,24.923284752820415,1.701903,1123861983.0,1123862941.0,False,2.4301095,0.540623,58.852474,0.57042474,0.44484615,-0.35119432,1.7017072937822426,1123861983.0,1123862745.2937822,False,2.4236077074911577,4.151515561770308,132.13506040999184,0.6021575817431442,0.4143888835351617,-0.29759237544664785
1.711731,3.8767308092651374,1.711731,1774896434.276731,446.97245002561544,31.834850025615467,33.49815232690699,-99.33430465381397,20.46538139749659,3.0,17.458014000344317,81.07506262592536,112.20771161502046,4.052,13.352400219114042,4.06981158678596,True,-37.0,2.0,8.232690698748295,6.0,True,False,False,1.7167054355450238,1123872769.0,1123877743.435545,False,96263.06862559242,24.923793364928912,1.712638,1123872769.0,1123873676.0,False,1.8320116,0.29276264,58.852474,0.5235988,0.35545123,-0.08088112,1.712821384448659,1123872769.0,1123873859.3844488,False,1.264218178975886,3.5781002784882165,129.82728052831212,0.572553683774045,0.38455315567867787,-0.20753961117854247
1.722802,3.887801809265137,1.722802,1774896434.287802,447.93754101479794,32.79994101479796,33.49815121980593,-99.33430243961186,20.24396118633382,3.0,17.99792504324361,82.52607355371721,113.53623288199708,4.052,13.923243665512778,4.243804669248295,True,-37.0,2.0,8.12198059316691,6.0,True,False,False,1.7279574542654028,1123883840.0,1123888995.4542654,False,96249.4266350711,24.93428720379147,1.723382,1123883840.0,1123884420.0,False,4.032222,-0.9124136,58.852474,0.65981966,0.32352448,-0.2575425,1.7235705505512107,1123883840.0,1123884608.5505512,False,3.2415682517384337,0.7010886637520126,131.32595071044946,0.5467109939432774,0.36726728109111484,-0.12703314742843724
1.733024,3.8980238092651374,1.733024,1774896434.298024,448.82862222619923,33.69102222619922,33.49815019760496,-99.33430039520991,20.03952099136446,3.0,18.496432014656907,83.86581103939044,114.76287405181326,4.052,14.45031093216329,4.404454772123371,True,-37.0,2.0,8.01976049568223,6.0,True,False,False,1.7383050822417665,1123894062.0,1123899343.0822418,False,96234.54257110778,24.941962481287426,1.734083,1123894062.0,1123895121.0,False,3.4951909,-1.9469614,58.852474,0.5533971,0.25115716,0.06172506,1.7338773084895882,1123894062.0,1123894915.3084896,False,3.333754934467162,-0.999755724093078,130.7082964976915,0.5125861284255162,0.341379442446057,-0.05878339135079681
1.743892,3.9088918092651372,1.743892,1774896434.308892,449.8871360627837,34.749536062783726,33.49814911080604,-99.33429822161209,20.0,3.0,19.351673692903496,85.29021317124466,115.44459697981317,4.052,15.260700855090663,4.651461620631634,True,-37.0,2.0,8.0,5.911080604037367,True,False,False,1.7492432442926646,1123904930.0,1123910281.2442927,False,96215.22258607784,24.947046687874252,1.744834,1123904930.0,1123905872.0,False,3.6370819,-3.180875,58.852474,0.51721346,0.2320011,0.055339713,1.7446380233842755,1123904930.0,1123905676.0233843,False,3.3355947,-0.4792871017492134,129.2065738298656,0.4903148099760632,0.28688712402872363,0.0133468039488129
1.75471,3.9197098092651377,1.75471,1774896434.31971,450.96536025317164,35.827760253171654,33.49814802900759,-99.33429605801517,20.0,3.0,20.274923764183676,86.70806149499636,115.98549620605061,4.052,16.12266704403814,4.914188915022825,True,-37.0,2.0,8.0,5.802900758789877,True,False,False,1.7597233930050817,1123915748.0,1123920761.3930051,False,96195.53520946321,24.95,1.755597,1123915748.0,1123916635.0,False,4.4614873,-2.5737967,58.852474,0.4640022,0.3001115,0.076624215,1.7557839382134446,1123915748.0,1123916821.9382133,False,4.186194398804129,0.9793854275049886,130.51989878963582,0.44771628882768627,0.25116643812466033,0.07222045534879488
1.765744,3.9307438092651372,1.765744,1774896434.3307438,452.0651130463627,36.92751304636266,33.49814692560917,-99.33429385121833,20.0,3.0,21.216608113093407,88.15421960225059,116.53719541683856,4.052,17.001843872365598,5.182162012297034,True,-37.0,2.0,8.0,5.692560916632288,True,False,False,1.769830079002434,1123926782.0,1123930868.0790024,False,96174.80257932271,24.95,1.766344,1123926782.0,1123927382.0,False,5.176331,-4.386051,58.852474,0.5235988,0.28521237,0.2149735,1.7665330954887217,1123926782.0,1123927571.0954888,False,5.184696357706763,-1.2754842237593977,130.56050768045114,0.40970273182330796,0.2215562321766914,0.1501952193383463
1.775992,3.9409918092651375,1.775992,1774896434.340992,453.0865256460202,37.94892564602022,33.498145900810634,-99.33429180162126,20.0,3.0,22.091212173962266,89.49736155287063,117.04959468384553,4.052,17.818393096282563,5.431046215746926,True,-37.0,2.0,8.0,5.590081063230893,True,False,False,1.7794106063814963,1123937030.0,1123940448.6063814,False,96154.82652919047,24.95,1.777046,1123937030.0,1123938084.0,False,4.4453225,-6.2917027,58.852474,0.4640022,0.20645969,0.2703132,1.7768408112781953,1123937030.0,1123937878.811278,False,4.502515218233089,-1.1510322806015048,129.69856804887218,0.3661640941917297,0.17801761380827105,0.2125613496541348
1.786825,3.951824809265138,1.786825,1774896434.351825,454.1662448782695,39.028644878269475,33.498144817512184,-99.33428963502436,20.0,3.0,23.01574240341117,90.91717583381002,117.5912439090101,4.052,18.681554468520325,5.694137802004995,True,-37.0,2.0,8.0,5.481751218197979,True,False,False,1.7902189527657795,1123947863.0,1123951256.9527657,False,96131.17918350286,24.95,1.787784,1123947863.0,1123948822.0,False,4.7093472,-5.3846774,58.852474,0.39163488,0.2447718,0.3043684,1.7875886013301312,1123947863.0,1123948626.60133,False,3.7888496307408093,-2.2057310863014963,131.38229545076666,0.3209159741732865,0.13756746757990024,0.27737627708756696
1.797798,3.9627978092651377,1.797798,1774896434.362798,455.25991783455777,40.122317834557755,33.498143720213754,-99.3342874404275,20.0,3.0,23.952220775768104,92.35533904850102,118.1398931241611,4.052,19.55587088480065,5.960629445687239,True,-37.0,2.0,8.0,5.37202137516778,True,False,False,1.801287648335113,1123958836.0,1123962325.6483352,False,96108.5065042229,24.947432288127366,1.798528,1123958836.0,1123959566.0,False,5.136817,-5.478074,58.852474,0.2490287,0.05321126,0.2490287,1.7987223798385616,1123958836.0,1123959760.3798385,False,5.240596324261603,-3.618727816703357,133.3624155439369,0.24699575861401576,0.08723606069611078,0.3404137472344524
1.808691,3.9736908092651375,1.808691,1774896434.3736908,456.3456172342523,41.20801723425231,33.49814263091531,-99.33428526183063,20.0,3.0,24.881871637891884,93.78301715819111,118.68454234503415,4.052,20.423812990199515,6.225178199412812,True,-37.0,2.0,8.0,5.2630915309931705,True,False,False,1.8126528087564313,1123969729.0,1123973690.8087564,False,96090.00077662362,24.936857586642073,1.809285,1123969729.0,1123970323.0,False,5.558898,-6.3419933,58.852474,0.22561574,0.042569008,0.3341667,1.8094749994352943,1123969729.0,1123970512.9994352,False,6.256755900056453,-2.914152281656484,131.31590987294115,0.19064433819105836,0.04676117187303494,0.38302855595011787
1.818929,3.9839288092651373,1.818929,1774896434.383929,457.3660331393357,42.22843313933564,33.49814160711677,-99.33428321423355,20.0,3.0,25.75562225998159,95.12484847068602,119.19644161275637,4.052,21.23956542525629,6.473819541618118,True,-37.0,2.0,8.0,5.1607116774487265,True,False,False,1.8233224837209303,1123979967.0,1123984360.483721,False,96072.3101744186,24.93307558139535,1.820023,1123979967.0,1123981061.0,False,4.497409,-7.2508144,58.852474,0.15963379,-0.010642252,0.46613064,1.8198218835764706,1123979967.0,1123980859.8835764,False,4.015646811642366,-4.721795434842342,130.67493880470587,0.12707388372329448,-0.001505287009223262,0.41716825338258806
1.829993,3.9949928092651374,1.829993,1774896434.3949928,458.4687760162493,43.3311760162493,33.49814050071836,-99.33428100143672,20.0,3.0,26.69986692522876,96.5749384923156,119.74964082139854,4.052,22.1211326201643,6.742521222626079,True,-37.0,2.0,8.0,5.05007183572029,True,False,False,1.8348238976744187,1123991031.0,1123995861.8976743,False,96052.47645348837,24.943796511627905,1.830764,1123991031.0,1123991802.0,False,5.3289986,-6.221655,58.852474,0.076624215,-0.08939492,0.4384608,1.8305717629937632,1123991031.0,1123991609.7629938,False,1.8993881197685836,-5.880229993347202,131.70118107113805,0.07184433621711975,-0.04803831515664861,0.465826423322788
1.840422,4.005421809265138,1.840422,1774896434.405422,459.55450200920944,44.41690200920943,33.49813945781855,-99.33427837345567,19.89156371128435,3.0,27.523816569606375,97.74349640240823,120.05421814435783,4.052,23.10260347753718,7.041673539953333,True,-37.0,2.0,8.054218144357826,4.945781855642173,True,False,False,1.8455405738212527,1124001460.0,1124006578.5738213,False,96035.89894440534,24.95,1.841479,1124001460.0,1124002517.0,False,3.899311,-5.980979,58.852474,-0.027669856,-0.13409238,0.42569008,1.8412695261140393,1124001460.0,1124002307.526114,False,6.5583960250119375,-3.9816367808529156,129.74942429036895,0.0013852913732636668,-0.07881537170675584,0.5050321314393863
1.851687,4.0166868092651375,1.851687,1774896434.416687,460.7734212316614,45.635821231661396,33.498138331317485,-99.33427499395245,19.666263496421315,3.0,28.347874635489394,98.80790473750713,120.16686825178934,4.052,24.31288243674915,7.4105665667211404,True,-37.0,2.0,8.166868251789342,4.833131748210659,True,False,False,1.8569022895144267,1124012725.0,1124017940.2895145,False,96021.62941590429,24.95,1.852253,1124012725.0,1124013291.0,False,4.533331,-6.128258,58.852474,-0.06172506,-0.034055207,0.5938377,1.8524470812517675,1124012725.0,1124013485.0812519,False,3.8852271462814825,-3.0360044185691413,130.39403027052504,-0.027491526818740626,-0.14185340387406933,0.5542398854161569
1.861909,4.026908809265137,1.861909,1774896434.426909,461.87948357448465,46.74188357448464,33.49813730911651,-99.33427192734952,19.461823301451954,3.0,29.09563509260933,99.77376199462039,120.26908834927403,4.052,25.411104498095316,7.7453046510194525,True,-37.0,2.0,8.269088349274023,4.730911650725978,True,False,False,1.867154190047767,1124022947.0,1124028192.1900477,False,96008.74224365811,24.94610536567268,1.862977,1124022947.0,1124024015.0,False,4.8242974,-6.699415,58.852474,-0.12770702,-0.32139602,0.70238864,1.862779886228674,1124022947.0,1124023817.8862286,False,5.1209948748704,-3.1374481092657183,130.62457206899802,-0.12519610838721895,-0.1489163732528985,0.5966178173117167
1.872937,4.037936809265138,1.872937,1774896434.437937,463.07275842448024,47.93515842448022,33.49813620631546,-99.33426861894637,19.241263091109346,3.0,29.902356117958455,100.81577665236301,120.37936845444533,4.052,26.595920864024258,8.106436679354594,True,-37.0,2.0,8.379368454445327,4.620631545554673,True,False,False,1.8781249097064416,1124033975.0,1124039162.9097064,False,95994.93358994574,24.935876733293142,1.873725,1124033975.0,1124034763.0,False,3.4646573,-5.979183,58.852474,-0.17027603,-0.28095546,0.7172878,1.8735301663192243,1124033975.0,1124034568.1663191,False,1.6016028190519274,-5.73317288045863,128.9843629112662,-0.17024497385842483,-0.18503863448925958,0.6538066587038884
1.88375,4.0487498092651375,1.88375,1774896434.44875,464.24276939228963,49.105169392289625,33.49813512501443,-99.33426537504327,19.025002884867543,3.0,30.693349448308478,101.83747637073179,120.48749855756623,4.052,27.75763825292429,8.460528139491323,True,-37.0,2.0,8.487498557566228,4.512501442433772,True,False,False,1.8885978481720804,1124044788.0,1124049635.8481722,False,95982.72860921983,24.93388308252743,1.884428,1124044788.0,1124045466.0,False,1.6524026,-6.501845,58.852474,-0.236258,-0.2447718,0.63640666,1.8846171588021778,1124044788.0,1124045655.1588023,False,0.8118565175535414,-4.932131906896547,131.36950561161524,-0.2294529577495464,-0.2251855500272233,0.7031187656678767
1.894764,4.059763809265137,1.894764,1774896434.459764,465.4345293848405,50.2969293848405,33.498134023613375,-99.33426207084013,18.804722674791968,3.0,31.499046344680902,102.87816819521284,120.59763866260401,4.052,28.940950499418776,8.821201712222843,True,-37.0,2.0,8.597638662604016,4.402361337395983,True,False,False,1.8988562148835595,1124055802.0,1124059894.2148836,False,95972.22043453749,24.94343596860228,1.895173,1124055802.0,1124056211.0,False,1.8068664,-6.158792,58.852474,-0.3341667,-0.3426805,0.685361,1.8953647521383765,1124055802.0,1124056402.7521384,False,1.7602487621136855,-3.1831991906481982,128.93651150731796,-0.2857764817905333,-0.24676773095229046,0.7390166831001702
1.904897,4.0698968092651375,1.904897,1774896434.4698968,466.5309615624798,51.39336156247973,33.49813301031241,-99.33425903093722,18.602062481520143,3.0,32.24029626759193,103.83561601230625,120.69896875923993,4.052,30.02961065864603,9.153025328755309,True,-37.0,2.0,8.698968759239929,4.3010312407600715,True,False,False,1.9084588287077793,1124065935.0,1124069496.8287077,False,95961.55353750638,24.94881156465737,1.905905,1124065935.0,1124066943.0,False,2.1553078,-5.9504457,58.852474,-0.3086253,-0.29159772,0.8151965,1.9056999884052461,1124065935.0,1124066737.9884052,False,0.42372018976143866,-0.9018830940410338,131.08877727143133,-0.3457811859579934,-0.24559116850313625,0.7978448440790731
1.915677,4.080676809265137,1.915677,1774896434.480677,467.69740179488383,52.559801794883825,33.49813193231138,-99.33425579693414,18.386462275907764,3.0,33.02887557963977,104.85419762370137,120.80676886204611,4.052,31.187782623164885,9.506036143540657,True,-37.0,2.0,8.806768862046118,4.193231137953882,True,False,False,1.919191878793495,1124076715.0,1124080229.8787935,False,95947.06898948246,24.94381689292499,1.916662,1124076715.0,1124077700.0,False,2.2828302,-3.7089255,58.852474,-0.3128822,-0.38312107,0.77262753,1.9168425704620315,1124076715.0,1124077880.570462,False,0.7277887281224966,-2.6482393798451,129.60870513665094,-0.379312041376302,-0.27503324322264755,0.855161300729992
1.926513,4.091512809265137,1.926513,1774896434.491513,468.86990145706665,53.73230145706662,33.498130848710346,-99.33425254613104,18.169742069227272,3.0,33.821551407594335,105.87807056814269,120.91512896538636,4.052,32.35197106542149,9.86088078074047,True,-37.0,2.0,8.915128965386364,4.084871034613636,True,False,False,1.929958767404408,1124087551.0,1124090996.7674043,False,95933.37008236322,24.941195417107625,1.927394,1124087551.0,1124088432.0,False,0.55319566,-4.1723166,58.852474,-0.3384236,-0.19368899,0.9237475,1.9271952769518383,1124087551.0,1124088233.2769518,False,-0.8972226595210556,1.0911335090358807,129.83030630463813,-0.4123114669509481,-0.2832831213211075,0.9223388092495326
1.936968,4.101967809265138,1.936968,1774896434.501968,470.02216898257484,54.88456898257482,33.4981296064187,-99.33424940962804,17.98032093490689,3.0,34.5323726856057,106.87793990833255,121.07871626037245,4.052,33.47613120863514,10.203524792391988,True,-37.0,2.0,9.0,4.0,True,False,False,1.9402800311507846,1124098006.0,1124101318.0311508,False,95922.78663783187,24.946006073712788,1.938115,1124098006.0,1124099153.0,False,-0.34484923,-2.0529306,58.852474,-0.58319545,-0.31926757,1.0195278,1.937912775086174,1124098006.0,1124098950.7750862,False,-2.116345377144772,-2.10506979929146,130.16792108674838,-0.48126999063098425,-0.2810441097759479,0.9943507510436614
1.94793,4.112929809265138,1.94793,1774896434.51293,471.32524508928503,56.18764508928503,33.49812741401661,-99.3342461210249,17.870700830365013,3.0,35.03355580357116,107.98054276785656,121.51719667853995,4.052,34.65889925061063,10.56403249158612,True,-37.0,2.0,9.0,4.0,True,False,False,1.9512319567793317,1124108968.0,1124112269.9567792,False,95910.45376845376,24.95,1.948849,1124108968.0,1124109887.0,False,-2.1948218,-2.0349698,58.852474,-0.55552554,-0.23838645,1.1514916,1.9486455303927823,1124108968.0,1124109683.530393,False,-2.5805068056137794,0.9072821642577273,129.6062562507974,-0.48737784522008565,-0.31455802767793684,1.092794650113916
1.958799,4.123798809265137,1.958799,1774896434.523799,472.6172660894523,57.47966608945227,33.498125240214534,-99.3342428603218,17.762010726710052,3.0,35.53048695748164,109.07379130645963,121.95195709315979,4.052,35.831632862016555,10.921481696342646,True,-37.0,2.0,9.0,4.0,True,False,False,1.962581806575369,1124119837.0,1124123619.8065753,False,95893.56332556333,24.95,1.959602,1124119837.0,1124120640.0,False,-2.762386,-1.2285254,58.852474,-0.5874523,-0.2958546,1.1727762,1.959783070978202,1124119837.0,1124120821.0709782,False,-1.670299703837118,2.1902516154837035,130.18878421635742,-0.5138470515042333,-0.2804218191334897,1.161858039019996
1.969514,4.134513809265138,1.969514,1774896434.534514,473.8909807841613,58.753380784161266,33.49812309721249,-99.33423964581874,17.65486062452375,3.0,36.02037722467741,110.15154989429031,122.380557501905,4.052,36.98775031957609,11.27386629740679,True,-37.0,2.0,9.0,4.0,True,False,False,1.9737484191304349,1124130552.0,1124134786.4191303,False,95875.9897584541,24.948418357487924,1.970352,1124130552.0,1124131390.0,False,-5.1655545,-1.1746427,58.852474,-0.5895808,-0.278827,1.2110883,1.9701583411997838,1124130552.0,1124131196.3411999,False,-6.612441830120709,1.0032138609800012,128.54911511619528,-0.5551170775355793,-0.24740581761124114,1.231427555593587
1.979923,4.144922809265138,1.979923,1774896434.5449228,475.1283206121805,59.990720612180496,33.498121015410504,-99.33423652311576,17.550770525255697,3.0,36.49627715853096,111.19852974876812,122.79691789897721,4.052,38.11085126364862,11.616187465160099,True,-37.0,2.0,9.0,4.0,True,False,False,1.9845466252173916,1124140961.0,1124145584.6252174,False,95856.88144927536,24.943389855072464,1.981081,1124140961.0,1124142119.0,False,-5.7492833,0.6843102,58.852474,-0.42781854,-0.046825908,1.2089598,1.980873840634006,1124140961.0,1124141911.840634,False,-8.15020788674353,4.402431244409257,129.76221333429396,-0.5534910799711815,-0.22162860178097957,1.3022183020749287
1.990952,4.1559518092651375,1.990952,1774896434.5559518,476.4393611504862,61.30176115048618,33.4981188096084,-99.3342332144126,17.440480420074856,3.0,37.00052351941776,112.30787174271909,123.23807831970058,4.052,39.30084841151833,11.978898595830788,True,-37.0,2.0,9.0,4.0,True,False,False,1.9958735743842366,1124151990.0,1124156911.5743842,False,95837.2239268121,24.941882242552193,1.991826,1124151990.0,1124152864.0,False,-3.739459,1.9972519,58.852474,-0.5427549,-0.20433125,1.3920066,1.991629219401632,1124151990.0,1124152667.2194016,False,-3.5605314974433506,3.483212296500456,128.57932400725295,-0.5678362066545783,-0.18035510943608354,1.382743892094288
2.001813,4.166812809265137,2.001813,1774896434.566813,477.7304311737465,62.592831173746475,33.498116637406326,-99.3342299561095,17.331870316496193,3.0,37.497088912979414,113.40031560855472,123.67251873401523,4.052,40.472718846101046,12.336084704291599,True,-37.0,2.0,9.0,4.0,True,False,False,2.0068308788177336,1124162851.0,1124167868.8788178,False,95818.88022519353,24.94697771522402,2.002592,1124162851.0,1124163630.0,False,-7.266979,2.9725287,58.852474,-0.5108281,-0.15111998,1.374979,2.0027799929245282,1124162851.0,1124163817.9929245,False,-9.788477889831274,4.398604816300801,128.07209946933963,-0.6085954315674897,-0.12802503030841814,1.4677449540457175
2.012448,4.1774478092651375,2.012448,1774896434.577448,478.9946360993863,63.857036099386264,33.4981145104043,-99.33422676560646,17.22552021507283,3.0,37.983321576687025,114.47002746871146,124.09791913970868,4.052,41.62020453542869,12.685838342398666,True,-37.0,2.0,9.0,4.0,True,False,False,2.0171856589820356,1124173486.0,1124178223.658982,False,95801.36437125748,24.94820658682635,2.01333,1124173486.0,1124174368.0,False,-8.218907,2.1894336,58.852474,-0.55552554,-0.1979459,1.738944,2.0131390849056605,1124173486.0,1124174177.0849056,False,-10.153202725870832,4.167765600544264,127.99823136792453,-0.5508430596516684,-0.11388159937590693,1.5596773129898416
2.022894,4.187893809265137,2.022894,1774896434.587894,480.23637419560004,65.09877419559999,33.49811242120231,-99.33422363180347,17.121060115451915,3.0,38.46091315215384,115.52072893473846,124.51575953819234,4.052,42.74729767230846,13.02937633051962,True,-37.0,2.0,9.0,4.0,True,False,False,2.0267912429854578,1124183932.0,1124187829.2429855,False,95784.83306244653,24.94373866552609,2.024085,1124183932.0,1124185123.0,False,-4.479448,4.6698337,58.852474,-0.5193419,-0.110679425,1.5388696,2.02388118204441,1124183932.0,1124184919.1820445,False,-3.2254798742343977,6.802074678158464,127.8607160949464,-0.5581687586236599,-0.04410344062212958,1.6644492416539036
2.033916,4.198915809265138,2.033916,1774896434.5989158,481.54658262911215,66.40898262911213,33.49811021680021,-99.3342203252003,17.01084001033783,3.0,38.964839472735434,116.62936684001797,124.95663995864868,4.052,43.9365395404579,13.391857251931569,True,-37.0,2.0,9.0,4.0,True,False,False,2.0371008122135286,1124194954.0,1124198138.8122134,False,95767.93740450947,24.94,2.034829,1124194954.0,1124195867.0,False,-7.0442643,6.71558,58.852474,-0.52147037,0.0,1.7921553,2.0346292973977698,1124194954.0,1124195667.2973979,False,-7.426574325278893,10.610398483271446,128.26669126394052,-0.5307533605576202,-0.016382088379181654,1.7599640193308568
2.044782,4.209781809265138,2.044782,1774896434.609782,482.95154311532,67.81394311531997,33.4981080436028,-99.3342160872056,17.0,3.0,39.431816906880364,117.9012042405953,125.09781986006757,4.052,45.43924548367531,13.849882023424232,True,-37.0,2.1956397201351523,8.706540419797271,4.0,True,False,False,2.047923044353906,1124205820.0,1124208961.044354,False,95753.34811796843,24.94,2.04558,1124205820.0,1124206618.0,False,-2.1714725,9.860533,58.852474,-0.42569008,0.03618366,1.956046,2.0457618130646913,1124205820.0,1124206799.8130646,False,-0.7619436382246004,13.600758531713042,126.24186606956992,-0.48275253755059666,0.02679163984278966,1.8770489304662084
2.055454,4.220453809265138,2.055454,1774896434.6204538,484.34375048055136,69.20615048055136,33.49810590920585,-99.3342118184117,17.0,3.0,39.88721183943269,119.16980440984821,125.20453970740361,4.052,46.95107085699176,14.31068639721109,True,-37.0,2.4090794148072203,8.38638087778917,4.0,True,False,False,2.058559656799777,1124216492.0,1124219597.6567998,False,95737.66043004747,24.94,2.056341,1124216492.0,1124217379.0,False,-7.2921247,6.925722,58.852474,-0.47464445,0.076624215,2.022028,2.0561377971629926,1124216492.0,1124217175.797163,False,-2.732301200219569,14.41751075867366,127.13706251048067,-0.4226736033258036,0.09158265546982348,1.9736465365377673
2.06591,4.230909809265137,2.06591,1774896434.63091,485.7077797356919,70.57017973569187,33.49810381800884,-99.3342076360177,17.0,3.0,40.333389633170235,120.41272826383138,125.30909955782954,4.052,48.43229706608068,14.76216414574139,True,-37.0,2.618199115659089,8.072701326511366,4.0,True,False,False,2.0690093304477335,1124226948.0,1124230047.3304477,False,95717.22144652331,24.94,2.067078,1124226948.0,1124228116.0,False,-3.3119895,10.0078125,58.852474,-0.44910303,0.034055207,2.1774049,2.0668764820453895,1124226948.0,1124227914.4820454,False,-3.8274494794503635,9.225834985253211,127.05598612697501,-0.39752102208752244,0.11203232421737075,2.0618518336110325
2.076936,4.241935809265137,2.076936,1774896434.6419358,487.1461678924611,72.00856789246107,33.49810161281199,-99.334203225624,17.0,3.0,40.803890432113434,121.72340906088743,125.41935940010157,4.052,49.99427106965891,15.238253822032036,True,-37.0,2.838718800203145,7.741921799695282,4.0,True,False,False,2.080017552172065,1124237974.0,1124241055.5521722,False,95695.78247935107,24.94,2.077814,1124237974.0,1124238852.0,False,-4.8512387,10.092229,58.852474,-0.3384236,0.05321126,2.164634,2.0776164646061814,1124237974.0,1124238654.4646063,False,-2.60279678063083,13.546660347593601,126.7581474032448,-0.32990432667995984,0.13638423904812844,2.1354579560772233
