time_s,accelerometer_x,accelerometer_y,accelerometer_z,gyroscope_x,gyroscope_y,gyroscope_z
0.0,0.0017453868721515333,0.0001895205241471148,-9.776313128295,-0.00021440628233704973,0.0010571070133735877,-0.002468083641424285
0.0033333333333333335,-0.0010310439717695016,0.004344852537637181,7.585566955352538,0.0036706408323639236,0.0036690116437665347,-0.0004358112541870881
0.006666666666666667,-0.0005458783023845774,0.001564092981444853,12.082543153237301,0.0005073656101212647,0.000600435172868457,-0.0017863840251767628
0.01,-0.009356212096826973,0.0032108879370008354,16.574609480761588,-0.0018534030689349576,0.00025397973814593065,6.371227693483492e-05
0.013333333333333334,-0.008838715656774151,-0.0034779108888182966,21.07694389528167,-0.0020633938356866216,-0.00030303472704896925,0.0006510307918163584
0.016666666666666666,-0.008438419195513904,0.00619206656922849,25.57289753804249,-0.0036257465494972385,0.0010156960136872026,-0.002266871500750365
0.02,-0.006802539777922511,-0.0021372696201287064,30.07181930914889,0.00047321500639120227,-0.0014078287789687357,0.0011699122490313406
0.023333333333333334,-0.004818798933274388,-0.004281711961576652,34.55958027118719,-0.0027603591677076815,-0.0003175902505573318,-0.002072640440129661
0.02666666666666667,-0.01038377090847896,0.004035395607079404,39.06013664928794,-0.001032275492543218,-0.0006548832095054183,0.00029548779172799397
0.03,0.007791637558296678,-0.0049504777057853225,43.554445010142736,-0.0010547734976422798,3.3521720668552246e-05,-0.004051546235103208
0.03333333333333333,0.001966731405967741,0.003966880795495341,48.059846276265915,0.0013188273745909015,1.695112459217266e-05,0.0021974547540501333
0.03666666666666667,0.0005079434705383947,-0.0009588147627648163,52.54852534062677,0.0004418783067097299,-9.856200648863131e-05,0.003638938791191961
0.04,0.0020607850761559343,-0.002245971551935946,57.057127345906046,-0.0004943335686057797,0.0010720117745096059,0.002109549319987538
0.043333333333333335,0.007192695828363239,0.0004500765486941501,60.90818399406767,-0.0016651445294638743,0.0010804397394103514,0.0015752599959422218
0.04666666666666667,-0.00010618127257977748,0.009243179665594212,64.72895555112363,0.0006818700476791366,0.002215472044706656,0.0016247854133804814
0.05,-0.00018632541219253817,-0.0022341670594283546,68.56742064634507,-0.0003859617185666594,-4.52147932770763e-05,0.002851241811083414
0.05333333333333334,0.004501751926929473,-0.007000065811938397,72.39756499076282,0.0015875089925103736,-0.001319200813840153,-0.0003901315652509429
0.05666666666666667,0.010473458284803557,-0.010082867710399361,76.2457125275818,-0.0015781843240652946,-0.00031074830333868844,2.6960864385938756e-06
0.06,-0.008394353303151882,0.010771232716533458,80.08452356405861,0.0013172657240695907,-0.0023607416995960325,0.0024839021455183904
0.06333333333333334,0.0005521309998327243,-0.0025701063619241373,81.28118287345433,-2.0017891134378185e-06,0.0006155867415557556,-0.002238457316601112
0.06666666666666667,0.00413899564247311,0.007782583393123547,82.3786894524086,-0.0015901934102842822,-0.0015757747324650741,0.0013694619043917076
0.07,0.004513343854361522,0.0072318695540447035,83.50865333508294,-0.0013949118884922544,-0.0015166496679445023,0.0005743692968355656
0.07333333333333333,0.0050457741658026115,0.0030444602998967196,84.6214351932161,-0.001914302228610534,0.0008982457742976312,0.0004429008072728798
0.07666666666666667,0.0035117923330238586,0.0014187520200297156,85.74434248435976,-0.0002472801941210759,-0.0015995741198868885,-0.003554209502991166
0.08,-0.0015545514784867337,0.006039189646752445,86.8455847545464,0.00032408377233527497,0.00246124533552413,0.002484889969487355
0.08333333333333334,0.0016477939408996302,-0.0024414657690687114,86.69087560342663,-0.0017566268035546812,0.0017594606473513646,-0.003835123539373012
0.08666666666666667,0.002093941859609417,-0.0045388099406647306,86.48507587931941,0.0007264552132621906,0.0014907438585024472,0.0001680744377883669
0.09,-0.01140703194981259,0.0005386781463056824,86.28107195608379,-0.0032320034830504037,-0.001944150962427948,0.0005124614997655264
0.09333333333333334,-0.0010936086874098448,-5.288249618096815e-07,86.08720827628564,0.002425493781184385,-0.0029740847802821957,-0.0030051974537646958
0.09666666666666668,-0.00227941978269215,-0.003096706937998566,85.8828402626682,0.0016469178084064931,-0.00011588364126471669,-0.0011265293334620661
0.1,0.005408164979008829,0.01267128034893834,85.6732403251847,-0.0010510354134806003,-0.001273101735113868,-0.0009418181325281473
0.10333333333333335,-0.004237284986491034,-0.0007173191821819919,85.51699805156615,0.00020221905486616989,0.0026742461419330056,-0.0006071164665424546
0.10666666666666667,0.007287438501030888,-0.007786328710443528,85.33808339249926,-0.0030635760466191553,0.0003819538988161541,-0.0008938605792803633
0.11,-0.0007215604246426121,-0.002037899857053033,85.18653239654833,0.0017326736202212096,-0.0010550372206857433,-0.0012427228711889185
0.11333333333333334,0.0023733592719001363,-0.0025978361401936055,85.02436727184534,-0.0008303305875872668,0.0017103177712087768,-0.0006327284027902839
0.11666666666666667,0.0065594120050532796,-0.0017308747415399385,84.85782350745275,0.0011763218154462948,-0.0019025815616821814,-0.0005447160620266769
0.12,-0.00591189334763796,-0.0030114644949574883,84.68324915848818,0.000852768319806633,0.00034174094841249366,0.0011331689930710997
0.12333333333333334,0.0011046450029003774,0.00043597052427698233,84.59518168635176,-0.002573548460263394,-0.0004534179485182334,0.000573364063873542
0.12666666666666668,-0.0013073792681861105,0.0023598302808540235,84.49522956203614,-0.0021881030303004334,0.0003174147167010802,0.001867313298125027
0.13,-0.0007471680818779766,0.0008235751880955705,84.40405392756318,-0.0003784410482454279,0.002636933965705649,0.003815667570774601
0.13333333333333333,0.011367676704751618,0.006944594167086063,84.31994788516973,0.00016925801116771274,-0.0010109182534769677,0.0002499914926211975
0.1366666666666667,0.003111588675449438,-0.0010828457462192388,84.22582420205876,0.0014880808490845981,0.0010009744056888898,0.0009613148192036373
0.14,0.005659111478222194,0.001265875636810931,84.13684705408969,0.0005629711575737523,-0.00022593113801769576,-0.00019814357546779605
0.14333333333333334,0.006273631257437737,0.005370328222725027,84.13093505621906,-0.0022381200834221595,-0.0021619402042768222,-0.0013999134271511567
0.14666666666666667,-0.010422574524725448,-0.002972164992668008,84.13451432341031,0.0011135759294559917,0.0016400975602081178,0.0022163184610976805
0.15,0.0051805731336929724,-0.007549928135490823,84.12368256911832,-0.0005524386704041076,-8.894485255699512e-05,-0.0017978864790130149
0.15333333333333335,-0.01215088527620093,0.0012378617789283479,84.13590251859125,-0.000273863467089424,-0.0017760852936872127,0.0015376352029282943
0.15666666666666668,-0.0040412485095085516,0.005364947397052168,84.14063384022452,-0.000818575525219922,0.003773430506358746,0.001302610221856412
0.16,-0.008854956696114092,-0.0042012191014562114,84.13135252494558,-0.000625284123017172,0.0011942381478190895,-0.002961716800231001
0.16333333333333333,0.0018814195437190679,0.004580205103138527,84.17441271859963,0.0015874517607988795,-0.000424507283367223,-0.001989562144885426
0.16666666666666669,-0.0019363311951765478,0.0018110142436929921,84.22077157971523,-0.0008106153884530841,-0.0008949298210983237,0.0026770380099067643
0.17,0.0017521682450264444,0.005528257676479841,84.26331840010664,0.0006530393023042348,0.001439527839074507,0.00013054514924703615
0.17333333333333334,-0.00027016427004916867,-0.0028232128075784233,84.30233819316396,-0.0003197055898666831,0.0014614363494122587,-7.424089012260359e-05
0.17666666666666667,0.001257071426291846,0.00039083185154697807,84.34359021480374,-0.0016587341399307016,0.001243796959232808,-1.8622748219314382e-05
0.18,0.0003210187415001596,0.00044441546527078634,84.38863225902118,0.00013860119676586009,0.0021764220921823806,0.0016040331424114864
0.18333333333333335,0.0012486228708831015,0.0011696045568501923,84.3723911460387,0.0018297833318625296,-9.431305255074468e-05,-0.00040870591760288374
0.18666666666666668,0.006045726627897719,0.0025586185472587387,84.38193851553602,0.0005375933387398172,0.0024280733186251356,-0.0002218477508580444
0.19,-0.0014874677378537728,0.0029470001922977684,84.36274761212141,-0.0014156848477560782,-0.001631909450359766,0.0011684479055455673
0.19333333333333336,0.002043070814040487,0.0010533192558905007,84.36119933945025,-0.002841575935645664,0.0010199403744878695,-0.0038908895538497788
0.19666666666666668,0.00928656762557327,-0.003199951439518299,84.35410932673267,-0.0015946598255958593,0.0001831666660791027,0.002633743425606092
0.2,0.001184642191333535,-0.0007013344638174971,84.35318660001724,0.0015295351619916426,0.000257698395400188,0.0018134245608719443
0.20333333333333334,0.0046672912506156485,0.012623085085709654,84.36204930436975,0.0008071834989277438,-0.0005837210088256618,-0.003118426466995344
0.2066666666666667,-0.008884563273941973,0.006229750325989364,84.3659087172866,0.0012972924908061854,0.0018925820465772894,0.0026245697166981156
0.21,0.003982804546650183,0.004380336644909168,84.3850547772726,-0.0010102774509258873,0.0001424535641996057,-0.0026747311222834794
0.21333333333333335,0.003995784378935685,0.0037875344328162576,84.38964390000143,-0.0017140185397470078,0.00012097834382339778,0.0021116100870741884
0.21666666666666667,0.009199904937758584,-0.0018069852722000493,84.39633132421491,0.0027079330541467713,-0.002168259312963977,-0.0007576353777921416
0.22,0.006321934549040289,-0.0005824256036051542,84.41781828854458,-0.0013691440399366147,0.0004945336220516007,-0.004581415659982094
0.22333333333333336,-0.0006986967453326298,-0.002912440200153719,84.43050955165246,0.0023004632059655384,-0.001305236061140739,0.0013297981908902267
0.22666666666666668,-0.004702924621347202,-0.0014682490916765128,84.4344654229711,-0.00032355290123155304,-0.002058632110551224,-0.0002703490150034754
0.23,-0.0035062584141019376,-0.004116594420629707,84.45787903182891,0.0002523295451353582,0.0011979065919425053,-0.002967288831258878
0.23333333333333334,0.0005090069717850582,0.001366673183307068,84.46918385464036,0.00233488681756212,-0.0013095154108924093,0.001861741216458239
0.2366666666666667,0.0008521037960010907,-0.0021820669304438963,84.48365682804334,-0.0011867649749363988,-0.0017896307286115049,-0.001435064859248257
0.24,0.008462041927473572,-0.0012212061847395657,84.49211220528977,-0.00039577412556486064,0.00014805833309048806,5.256352093485311e-06
0.24333333333333335,0.00276534759987821,-0.0046206063346043574,84.51227272998263,-0.0009324931760824108,0.00014699322098484722,1.6669318061622395e-05
0.24666666666666667,-3.98026804477238e-05,-0.004160005631833679,84.53110452166518,-0.0002285864400352034,-0.0014264647703728882,0.0017487333984625218
0.25,0.0014668649049011586,0.005129821429828356,84.54483082399868,0.0009731136171982148,0.00019808742280499314,-0.0024383144388042365
0.25333333333333335,0.0023828051560970524,-0.0022286460968590836,84.55701641020528,-0.002207058601412083,0.0029471016904525802,0.0012125990172584555
0.2566666666666667,0.0053576509124269155,0.009787424786746896,84.56943916906518,-0.0017647918282916529,0.0010100222200808875,0.0009120909196212348
0.26,-0.0016478955457796512,0.0021576477189424294,84.58101880993455,0.001285813443843906,-0.0017409617474140686,0.00025270566622937027
0.26333333333333336,0.0011624086611728363,0.0007901333308352809,84.63097930370333,0.000277716641064655,0.0006423447601118519,0.0015352678740510421
0.26666666666666666,-0.0061266296915532615,-0.0036146521939868725,84.68458265541226,-0.0007536447336677847,-0.0016492126360591478,-0.0005807505402515719
0.27,-0.005950996154608378,0.006555333721759423,84.72497029253186,-0.002495381374228576,0.0021210180853195623,0.002781681531833754
0.2733333333333334,-0.0014087265455732215,0.00022985166697387814,84.77922118660442,-0.0012489316779547828,0.0025605542754632417,-0.00036981040857023763
0.27666666666666667,-0.001198743312028374,-0.006314511019023948,84.83223350180138,-0.0013915926556420457,0.001832508020897516,-0.0011404516294570672
0.28,0.0047314504151915,-0.000976115305270406,84.88289964505516,-0.0019336465210323193,-0.0013907223904872062,-0.00078829939254152
0.2833333333333333,0.007089305717103035,0.0019669009941651323,84.9177321370653,0.0019953234273932187,-0.00028296745849851744,-0.001159226070475398
0.2866666666666667,-0.003933846360139467,-0.0038966276788109815,84.97372574739119,0.001429023252075479,0.000576300457072556,-0.0007629617524818944
0.29,0.0038292985781164398,-0.00133390236184749,85.02536918041052,0.0016499038839452949,0.002735709083295686,0.004517782640037243
0.29333333333333333,0.003315058297766577,-0.0017310153407575331,85.07804939014846,0.0033481313124693337,-0.00018033554200450082,-0.0023764411656788677
0.2966666666666667,0.0020178971341571804,0.0009451025142877612,85.11994726998357,0.0018504426272624003,0.003457541059395289,-0.002614608012679055
0.3,0.006541507249449562,-0.005795394879747413,85.17831694322877,-0.0015430728855439237,0.0017379408699325835,0.0004257708853928567
0.30333333333333334,-0.002152534203599462,0.0013100750473822285,85.21914600032758,-0.003928338123344839,0.0009881007385321612,-0.0003963708350861446
0.3066666666666667,-0.008221845240626309,0.0029321925301830686,85.26972493201615,0.000905763464776796,0.0012872416185123045,0.0011040312404608315
0.31,0.0015835338258695273,-0.0010423374531746293,85.32388286433978,0.0011356909914190863,0.001573911101015055,-0.0012392497059735854
0.31333333333333335,-0.0013463068439357796,0.004420746174231008,85.36291071650598,0.0030460284957995096,0.0010640139769157707,-0.002248072740656775
0.3166666666666667,0.004873989040779917,1.3221479109071389e-05,85.42469924886825,-0.00026000302637868577,0.000801079153355324,0.0008406796972194621
0.32,0.013507260165851647,-0.0011836156138921158,85.47096234884138,-0.0003081089223814593,0.0020948978759795954,-0.0014698542246811594
0.32333333333333336,-0.0036717305641502354,0.0017296690042215201,85.5153100975061,0.0013677529076063185,0.0011912780401861728,-0.0006878718161590192
0.32666666666666666,-0.0029415781829667267,-0.005065028014697687,85.57406484591476,0.0012857901139248853,0.000760464328698551,-0.001343356216920263
0.33,0.25155130024231037,0.1506667806970127,85.61150596956638,-0.0004882466994801168,-0.0012596692231708318,-0.000897210437488801
0.33333333333333337,0.25617193830093116,0.14312559001610123,85.66277750757982,0.0007749885476965032,-0.004553338240805878,-0.00030187273889114484
0.33666666666666667,0.254112435640483,0.15426571751119508,85.70406035960872,0.0005096564452602599,-0.005504067524385915,0.001092546429023871
0.34,0.25478515422177334,0.1531065233257021,85.75185292512532,0.0007824234677944364,-0.005144455862547649,-0.0001662408794332515
0.3433333333333334,0.26165112155860293,0.1607014201341183,85.78778261170352,0.0030239009108055798,-0.005943415611545645,-0.0024200565969692348
0.3466666666666667,0.26601247277876033,0.1484713907228705,85.82957606214688,0.0007708676452307852,-0.006736702304960142,0.002780529289985094
0.35000000000000003,0.27691901830429794,0.15447487487114567,85.86588236636594,0.0007871812284363914,-0.011193293595550314,0.0009804582119935
0.35333333333333333,0.27905416019684637,0.16277316324450944,85.9011338791949,0.0022350293159451723,-0.01083999208192738,0.0015571977073269771
0.3566666666666667,0.26823501281562606,0.1681943478850723,85.93852278499267,0.005337208750342973,-0.011165603189091057,-0.0021969894006138692
0.36,0.2770686396433507,0.1608529218518329,85.97351191968093,0.0035266523742333877,-0.012856381052810893,0.0005041167332047376
0.36333333333333334,0.27514237725436386,0.16691339173880854,86.00573906361804,-2.319699915997314e-06,-0.018031792831583904,-0.0013879483678136016
0.3666666666666667,0.26886015634318183,0.16558341978761767,86.04907187258576,0.004268344996563419,-0.016650120348188278,-0.002844303974649751
0.37,0.2835708259385859,0.16446914106377722,86.0874303089148,0.0038018511430537817,-0.020436716528753722,0.0009979212267246193
0.37333333333333335,0.28552504039057297,0.1681366445642458,86.13087848545504,0.005640152610198262,-0.020801072096013385,-0.001704807098077177
0.3766666666666667,0.28408198202987317,0.1596945870445714,86.16738978813595,0.003122773569994776,-0.019217281688375346,0.0006742137406883784
0.38,0.285249245047757,0.1668445754248907,86.21663945715713,0.006193872140016463,-0.02149598303919702,0.00015742207263380535
0.38333333333333336,0.2721797310350137,0.17276368513390422,86.26640053749313,0.004581635315222257,-0.023655427491196743,0.001359913025638788
0.3866666666666667,0.28315007197680475,0.1737004152009489,86.31290817070209,0.005057116785423223,-0.026480730957928758,-0.002236406473108457
0.39,0.28440763999283747,0.1631945852321909,86.36454848539289,0.005444676614951358,-0.025443527934611652,-0.0009103363844729224
0.39333333333333337,0.28473947425838986,0.16593185408004488,86.41837700498913,0.006263662145730797,-0.03189616150192329,-0.00020121762545360745
0.39666666666666667,0.2842988225303078,0.16560165031603544,86.45948472343755,0.006987095211644776,-0.02924899517882635,0.0014903401116054867
0.4,0.2803227182444227,0.1606116862824236,86.50299532067662,0.0016569673438895762,-0.03257477635909923,-0.0020624617497771807
0.4033333333333334,0.28376653970537097,0.1646802128388261,86.60797787113995,0.009261509181531551,-0.03504930061863126,0.0010470246970623112
0.4066666666666667,0.2905418367938439,0.1654926237287154,86.73708868187029,0.0036748595875745332,-0.03734472991820276,0.0013983173207347739
0.41000000000000003,0.27596389953686695,0.17170855838133764,86.85850137626662,0.0044734025542484315,-0.035096430211564014,3.071729815033326e-05
0.4133333333333334,0.27893278906633184,0.15844165214194883,86.96867523923791,0.006713278343635196,-0.03936387621875843,0.000875012172383613
0.4166666666666667,0.28647619750761305,0.17771379130833667,87.07560557822674,0.009555653634932406,-0.04023034854714949,0.002999351733774647
0.42,0.2811441997011879,0.16598828809517008,87.20525666708626,0.01058466751687558,-0.04239378699475807,0.0005159191235019054
0.42333333333333334,0.27853705564047,0.17399989647559114,87.2507212456636,0.004967767824266974,-0.04366216703449268,0.0004286196051453888
0.4266666666666667,0.2633694091622973,0.17020000920405787,87.29920014107323,0.0066397635758004905,-0.04475400052232864,-0.0016993346349469187
0.43,0.27575706028254066,0.17276459712293038,87.334993486068,0.010359649028606522,-0.047881950368108384,0.0010977207910725963
0.43333333333333335,0.2678909003610535,0.17027231398845774,87.36710117616065,0.00992730066813113,-0.04815800857035825,0.0010739792709674617
0.4366666666666667,0.2667392990865262,0.17283304414470319,87.40401562874769,0.009357123887907708,-0.05026933447772272,-0.0029244630645042175
0.44,0.2635234477955106,0.17512643208102352,87.44221213991737,0.01132475002690503,-0.05092475751927942,-2.4501146023339024e-06
0.44333333333333336,0.2626198984376126,0.16898630459402608,87.4920047361922,0.007638952953241806,-0.05200301499145712,0.003100156337449754
0.4466666666666667,0.27075222470574606,0.167962871736418,87.55791018982585,0.01189875231368418,-0.051171276010326755,0.0002282508464564707
0.45,0.26768314693069134,0.16832221673008813,87.61212206649606,0.01443650417923135,-0.05758829718106043,0.0019951114758384853
0.45333333333333337,0.2576327263705569,0.16800361077477793,87.67182217111575,0.011701257322361535,-0.059747804764792516,-0.0003350950788767894
0.4566666666666667,0.252512812677343,0.16994026539951795,87.71946000662999,0.014557284205451963,-0.06162978564372046,0.00031168181702974037
0.46,0.25092814075327957,0.1631294958249663,87.77743735476795,0.008853599844116478,-0.06119110905442414,0.0008994513590274508
0.4633333333333334,0.24665218663187422,0.16442887688818883,87.81369747814766,0.014893669374010864,-0.062249841223505076,-0.0013697922628477487
0.4666666666666667,0.23799450441649514,0.1676403814020814,87.86193284978447,0.01381352298804613,-0.06707837335130118,-0.001262980987386128
0.47000000000000003,0.23220981644008787,0.15701424718451426,87.8979322582549,0.011661468971133336,-0.06681589826820179,0.0011362105521074144
0.4733333333333334,0.23039080950919355,0.16473497449250535,87.92828206554799,0.01499603326517244,-0.07231352055720656,-0.002020419356088716
0.4766666666666667,0.23009257106891137,0.15975480353908875,87.96866934768688,0.0125885827279927,-0.07180961835559281,-0.0016329891027121205
0.48,0.22789967249157067,0.15370860767813246,87.99903398498519,0.013623321595705236,-0.0712558319588375,-0.0013914783674757341
0.48333333333333334,0.21343953096172305,0.16417467499016047,87.98841910173493,0.013832847443859628,-0.07231718543909775,0.002237681864960961
0.4866666666666667,0.2240073760249587,0.1531170121600748,87.96041928173354,0.015390882963615531,-0.07696668018429778,0.0014543052948339495
0.49,0.19659801818252057,0.15620968656483317,87.92992289694082,0.016098614765063943,-0.07534172528793368,0.0021955878612916102
0.49333333333333335,0.20358144639948178,0.1501043872380906,87.92015461389842,0.01575013376594404,-0.07638038710502722,0.002638562154552144
0.4966666666666667,0.19239822777897916,0.15522645519073874,87.8836904375243,0.01688103417342815,-0.07928864827614072,-0.000809059164522422
0.5,0.19064133883704912,0.1499275005381903,87.86625171741565,0.020123529412205677,-0.08056766929918238,0.0026873061494301423
0.5033333333333334,0.1773252922643289,0.15259022809069847,87.92237581821044,0.017106631511584036,-0.08459315101590414,0.0007764337858466624
0.5066666666666667,0.16826486045274605,0.13711892899308908,87.99119391432323,0.014513985193092185,-0.08857225427573553,9.19950656894796e-05
0.51,0.16966931590784273,0.14704264242576062,88.07240799271565,0.015227104780772651,-0.08509140568666046,0.001017099769439242
0.5133333333333334,0.1572901175323049,0.1472781839907571,88.15244030487449,0.015008851240765165,-0.0881838082554396,-0.00018379222611467484
0.5166666666666667,0.15974558498929686,0.13443152577170564,88.23106042329998,0.02058262248531183,-0.08758972846174252,-0.002088377660776502
0.52,0.14491961157203676,0.12478365018320246,88.30311328840085,0.0171912752675256,-0.08985192956299752,0.00015473665363089194
0.5233333333333333,0.14039055866823139,0.1290421183076956,88.3720505221862,0.018406043274130365,-0.0899229974721195,-0.0011324317065983815
0.5266666666666667,0.12199681911710142,0.13006140562070187,88.44377506981014,0.021873965590800553,-0.09174351109476807,-1.4481326002075703e-05
0.53,0.12111058583558756,0.12840884519542756,88.51338395392787,0.01865610925991655,-0.09531929844023267,-0.0006882906678679073
0.5333333333333333,0.101912976012816,0.12608004954064844,88.58150965252379,0.017941528686538203,-0.09500161808655291,0.0017878422910616511
0.5366666666666667,0.1117740696545726,0.11228894372524419,88.6530400092101,0.017815194348481854,-0.0988417156841149,0.0008128739880688705
0.54,0.09270159109591862,0.11810177012843505,88.7149920537826,0.019038319993039517,-0.09522463271335722,0.0015804204021927643
0.5433333333333333,0.09011595001027746,0.12190512741213139,88.79502659488607,0.016659951152359475,-0.10352434323261865,-0.0008483537902191432
0.5466666666666667,0.07570202205806302,0.1087527703928145,88.8752125116026,0.02149179499329817,-0.10641133300350883,-0.0011499830133419933
0.55,0.0660258112570654,0.1059259806505013,88.95350566801207,0.02158004587830259,-0.10068644737547378,-0.00037662699484783223
0.5533333333333333,0.055215838502317365,0.10331334683645978,89.03126660436585,0.020889866641817748,-0.10289911890744875,-0.0022723091918774195
0.5566666666666668,0.05792900867496051,0.09971118153234054,89.11791646230716,0.02005982665431022,-0.10486473445475056,0.0008497760223623961
0.56,0.036923651373460174,0.10324568669737863,89.20887229822837,0.023379344927342702,-0.10618190216461333,-0.001355346190879702
0.5633333333333334,0.021930127381980677,0.09481084113680682,89.26975870325849,0.023540946480900615,-0.10936899744269547,-0.0005773363151831934
0.5666666666666667,0.01643941657169636,0.0840026267152631,89.33382888941226,0.021032313778297184,-0.11323594497091871,-0.001998368837303093
0.5700000000000001,0.000379337221155099,0.0827127734577483,89.40947169597861,0.022733504913237626,-0.11433578655077227,-0.0002921483529915802
0.5733333333333334,-0.008365452341385133,0.0872405584139768,89.47905660076644,0.021941890742439584,-0.11162348932177274,-0.0020852214070438595
0.5766666666666667,-0.026289859244157734,0.07602331649499924,89.53372211072102,0.02268180695062989,-0.11324025921632816,-0.000983055594918727
0.58,-0.023251775764552066,0.0764883102981977,89.60253661355031,0.024108553596295542,-0.11420454406098332,0.0005965083470648655
0.5833333333333334,-0.04766212032627827,0.06674596078661416,89.65651000872695,0.022811731588453316,-0.11273411059084468,0.0005034438483686706
0.5866666666666667,-0.054752410748983536,0.05690622585750753,89.72261096622522,0.022710386098435304,-0.11437718736079927,-4.667719307691784e-07
0.59,-0.06654886531960812,0.054417361315485586,89.77302429051872,0.021789912566733505,-0.11981143778102107,0.0015303041768070004
0.5933333333333334,-0.08544337449247567,0.04570126970151723,89.83480708934299,0.024762959741386696,-0.11751972686458384,-0.0022636626236318307
0.5966666666666667,-0.08770172537922122,0.05871616444926774,89.87769859615338,0.02575222709546989,-0.12005341088243525,5.8071566451722944e-05
0.6,-0.10861989012690122,0.0317553695629526,89.92708325698119,0.028983840582311904,-0.11931444609662023,0.001564171285679818
0.6033333333333334,-0.11837486977828186,0.03423455061728874,89.97523922854715,0.027220495945905362,-0.11904138930421612,-0.0009467505545609531
0.6066666666666667,-0.13170767017090276,0.037069049906315495,90.03390124155479,0.025109243039370756,-0.12034199939776698,-0.003015148141813539
0.61,-0.1544103860140457,0.030011910119997265,90.0734036034005,0.022483999774360584,-0.12131647812940846,-0.00556100836645423
0.6133333333333334,-0.16933893357952345,0.017650698749269778,90.12917628439894,0.024382679882614132,-0.1219228420382066,-0.0018246619555248454
0.6166666666666667,-0.17867662014068647,0.010961790406978667,90.17387875703919,0.02506173942909508,-0.12398490551985394,0.00013846894747369948
0.62,-0.19234587939036796,0.010192499414720809,90.21666901244481,0.02377874303350709,-0.12527515598834277,0.0011309731353505202
0.6233333333333334,-0.20931024442779633,-0.0006295949006168691,90.26603855501693,0.025735749780449124,-0.12650630895934756,0.0018737143154803834
0.6266666666666667,-0.22166278906644668,-0.006184088060705523,90.35152067776701,0.02354514811841312,-0.12586493484398303,-0.001791230757962025
0.63,-0.23241698311770395,-0.01439419826636931,90.40458832100956,0.0259317005670913,-0.12931175142787726,0.0021200384422664993
0.6333333333333334,-0.24831957457898163,-0.02448804584750508,90.46746442148347,0.025460190474416975,-0.12927529694643924,0.0004721437129348378
0.6366666666666667,-0.2683987492461392,-0.025003180365935462,90.5404035675613,0.022893387770778286,-0.12927583179724939,-0.0042264632350180195
0.64,-0.29145824931168435,-0.03244381195741406,90.59319567612417,0.026585761861968087,-0.1287509329523262,-0.0013261027451954845
0.6433333333333334,-0.30335892859499286,-0.03479310432047981,90.67022114796947,0.029423501080264917,-0.129440568761506,0.0003999356208414283
0.6466666666666667,-0.30092165795189996,-0.03169284816037641,90.75834416559242,0.023967193120139813,-0.1295058391319482,-0.0014361556269101117
0.65,-0.32949741329602933,-0.045115901480010254,90.85588043446191,0.02407055135463297,-0.1292977882759313,0.0012064434531474063
0.6533333333333333,-0.3569391859493839,-0.05797692717571476,90.92302244472708,0.022624088122715387,-0.13105250953280048,0.0022397141173738817
0.6566666666666667,-0.35888045708906313,-0.05660649138516618,91.02136526934706,0.0237300779229033,-0.12972111592486274,0.0024874218287357593
0.66,-0.38440462011987586,-0.05249264239277673,91.1073842924803,0.024371060485292514,-0.1321422393466064,-0.0012404371819166788
0.6633333333333333,-0.40049329613333545,-0.07901596129034615,91.2009616886636,0.024509590415252545,-0.1330544643685032,-0.0019607183083243094
0.6666666666666667,-0.41365185315500874,-0.08001868796415018,91.28973870960192,0.02614399649596465,-0.13188808227863213,-0.0017522021133758528
0.67,-0.42032066930249506,-0.10463167333679482,91.39286124067999,0.025444894586191303,-0.12918413542120574,0.002488339009580188
0.6733333333333333,-0.4546074019939744,-0.10260365732954933,91.48962548769393,0.02829859275035137,-0.13131966643621823,-0.0014698832437769712
0.6766666666666667,-0.4676877087186241,-0.09499462153906166,91.57986008757693,0.025403929568072654,-0.1332108896119773,0.0012836310326881074
0.68,-0.4896094313014218,-0.10554093609347218,91.69120025538327,0.027264573666761598,-0.13244350768095742,0.0008101759250654018
0.6833333333333333,-0.5017586797749691,-0.12793495623927187,91.7977833828754,0.023466970700799197,-0.12898009565448332,0.0018421778351997192
0.6866666666666668,-0.5204760907716056,-0.12491698074787344,91.91565124860685,0.025171513244033848,-0.12875169589007154,0.0024552263269907414
0.6900000000000001,-0.5469272039886958,-0.13351121702021854,92.02236385764334,0.02693295592218665,-0.12935959302790923,-0.0036973904228703434
0.6933333333333334,-0.5550438761219183,-0.15180394205286088,92.13715080152689,0.024539124305994534,-0.13244720113548497,-0.0010951846538533546
0.6966666666666667,-0.580247749588605,-0.14248094516070034,92.24994650774559,0.025627344487290316,-0.13044614999375956,0.0013149024536787495
0.7000000000000001,-0.5920245660784279,-0.16110911622745364,92.35713609655248,0.02362001496786439,-0.12713579400625197,-0.000637486191511993
0.7033333333333334,-0.6074288961373511,-0.16667296031021056,92.47455067573806,0.025661914517044478,-0.1303780602458702,0.0009666300794191873
0.7066666666666667,-0.63745537436418,-0.1753501836665672,92.60600397786982,0.02439677867475099,-0.12740499418270668,-0.001878555489088108
0.71,-0.6457988883680384,-0.18523119513413422,92.72431068644886,0.026606445069662032,-0.12776821621316495,-0.0012425553311183307
0.7133333333333334,-0.6650680309214853,-0.18657575111544294,92.85023330629878,0.023027518060943965,-0.12725330054331344,-9.477369227244124e-05
0.7166666666666667,-0.6891525010761196,-0.19522455933083885,92.98435630825249,0.02154642025682146,-0.12483673114335342,0.00043627648769871934
0.72,-0.7048040557706179,-0.20363859403651594,93.09848516345734,0.026624201031823943,-0.1235845226033747,0.003467190478404594
0.7233333333333334,-0.7339091302258359,-0.20262075875865956,93.22860309614038,0.026298565589084,-0.12569132265766098,-0.0017783678589843584
0.7266666666666667,-0.7480045166510545,-0.21633257761865415,93.3588792606077,0.02236024707870414,-0.12319847144848127,-0.00448598389280195
0.73,-0.7643954414785384,-0.23310501152604346,93.4865629653142,0.023976891332293485,-0.12300474626884768,-0.0023218011632512663
0.7333333333333334,-0.7792039173318445,-0.23692256998925454,93.63485954378916,0.0216289278759392,-0.12211967070148201,-0.0002977308537221276
0.7366666666666667,-0.8115327453642015,-0.24718073231451781,93.7552511808449,0.024241986023461722,-0.12337630263214569,-0.0018213968478401794
0.74,-0.8263779473908834,-0.25006879290024076,93.89364567648786,0.022659261258986426,-0.12458868692008127,0.0024565042685918163
0.7433333333333334,-0.8403558890902175,-0.2544836812435935,94.03095826035789,0.02248095795546497,-0.12058691909479662,-0.0025206363516783563
0.7466666666666667,-0.8555425828440701,-0.2654434366992474,94.17557680109309,0.02238452741608174,-0.11723807031982122,-0.000866760939592965
0.75,-0.8774576194900054,-0.27338328969827713,94.30175217633939,0.021706715224350037,-0.11798312191934933,-0.0009410965531003651
0.7533333333333334,-0.9046739081589936,-0.2709785812129317,94.44063063555548,0.021127163323834183,-0.11511892509648046,-0.00069888923448199
0.7566666666666667,-0.9113633904774826,-0.285157885360737,94.57662137417229,0.018361068869431858,-0.114647514613349,-2.743530041516775e-05
0.76,-0.9271426147971508,-0.2958330569354165,94.72183221293042,0.018638719717308266,-0.11163391807150776,0.003821127234057328
0.7633333333333334,-0.9520411286921299,-0.2880420897062704,94.85698185755167,0.020171371622395188,-0.11008084658422732,0.0008830763381631042
0.7666666666666667,-0.9620459705703103,-0.3166393022953332,95.00301109768448,0.020752257091032893,-0.10997991859958058,0.0003661432376308515
0.77,-0.989672932250044,-0.31461346759391,95.12829151046788,0.019217452169766634,-0.10819559561978569,0.0006347727941729504
0.7733333333333334,-1.0000399442815893,-0.3221737493191115,95.27905276141536,0.020292725851736852,-0.10481108606198543,0.00013185204072781726
0.7766666666666667,-1.019082951269808,-0.33092025607627695,95.41028794955304,0.019472338499739148,-0.10424157651586786,0.0029223760771331757
0.78,-1.0306300423427597,-0.33939916699031264,95.55618650032926,0.01907545334115408,-0.10118222801567789,-0.0009121578414941958
0.7833333333333334,-1.0569015797842487,-0.35170006519097946,95.68577643690332,0.01787003174015146,-0.1009961812406171,0.0002665673931754406
0.7866666666666667,-1.0672017019046802,-0.3608722150561159,95.81974679207795,0.0172152564474909,-0.1023291671589384,-0.0006004038145690426
0.79,-1.078710856727745,-0.3588057990769306,95.95554169430716,0.019409254325672906,-0.09912886463222123,-0.001602642010604349
0.7933333333333333,-1.1001521343944902,-0.3599612431031411,96.090932649972,0.017496020700434364,-0.09504488327076212,-0.000972665511049253
0.7966666666666667,-1.12690353840561,-0.37503592680432196,96.20873649257615,0.017214825546503176,-0.09317498500041901,-0.0010289683773364996
0.8,-1.136668574827451,-0.38015868287441484,96.35420991078406,0.016017904085840952,-0.08962794005937107,-0.001021943859189218
0.8033333333333333,-1.1533324041574897,-0.38539911758366,96.47063666259288,0.015078124057149733,-0.09160834411778669,0.000784387352586747
0.8066666666666668,-1.1710816739900414,-0.3876961210396612,96.58530730235417,0.018611724910121703,-0.08783858278720572,0.0015589989583166411
0.81,-1.1868450055426314,-0.4028036999456643,96.69318648654155,0.016891712871875353,-0.08625575028955573,0.0014738877776300442
0.8133333333333334,-1.2045067694747484,-0.40324142895526294,96.80711257080351,0.014105967739762165,-0.08259503958545943,-0.001982439795142324
0.8166666666666668,-1.2180720929225508,-0.41311770234673045,96.9204205434835,0.013544905383556788,-0.08085127411439036,0.0046296398692990655
0.8200000000000001,-1.2225590555056154,-0.41936498219021684,97.03774752937855,0.015809840697814208,-0.07800727918967672,-0.002680428537853882
0.8233333333333334,-1.2448731213696693,-0.42842309967774556,97.14055367468947,0.012248822264302815,-0.075614793103422,0.0009679590806248018
0.8266666666666668,-1.257810608337173,-0.4245934654954952,97.23184727112789,0.014914324156676262,-0.07416329964948826,-0.0011363439783346804
0.8300000000000001,-1.2672591165113538,-0.42429133931939045,97.33734874541096,0.008336932718778379,-0.07190654602411964,-0.0006562301875928381
0.8333333333333334,-1.279846216950718,-0.43783932794597835,97.43551146795754,0.01362130425871944,-0.07048145559066056,0.0014850550290148523
0.8366666666666667,-1.2953652043230055,-0.44058068211462736,97.51396908595028,0.008253162448717115,-0.0649953821052399,-0.0021132163399488067
0.84,-1.3052254901721383,-0.45082207135094937,97.62179521972531,0.01181447955756446,-0.06398880868223011,0.0004841622120211257
0.8433333333333334,-1.3201596525553339,-0.442820213133151,97.70812191226821,0.010985349137599354,-0.05798397112393087,0.0010526015205040375
0.8466666666666667,-1.3299237508667108,-0.4564365856331103,97.78328234577059,0.013422250682964734,-0.05895179085356877,0.0013060240015862114
0.85,-1.3448678294233065,-0.4530617300654115,97.86411355855593,0.008229190940181525,-0.058280192686367104,0.002085013538882319
0.8533333333333334,-1.3494815308961075,-0.4600468502399757,97.94492663699826,0.008818412242694378,-0.05298819154122555,0.0017348797970836779
0.8566666666666667,-1.3624300822833602,-0.4583900827952714,98.02191707213062,0.0074626051863792425,-0.04752039567499447,0.0008441286163762366
0.86,-1.3621588330738423,-0.4848194673026528,98.10708523512172,0.0064291998900629765,-0.04974655303091517,-0.000129042016018377
0.8633333333333334,-1.3818200965355316,-0.4729678445903491,98.19542630382928,0.0071173001598203835,-0.04261692573164188,0.00015401257810065055
0.8666666666666667,-1.3786238709954997,-0.47663216176869394,98.25788621619323,0.006004022948769107,-0.04181016806178184,-0.003014255406427765
0.87,-1.3956720024810294,-0.4738648985775674,98.33228722875445,0.003232188306825236,-0.03889728667898119,-0.0006527264824477995
0.8733333333333334,-1.3931419932997697,-0.4853204015235599,98.39976183491642,0.006555844329020342,-0.03840107808737666,-0.0021812389787439585
0.8766666666666667,-1.402066047208943,-0.4745334033129342,98.47792190644832,0.005299395315377767,-0.03322083441923911,0.0007798826757027713
0.88,-1.408834525884681,-0.4788783370349992,98.54503368408939,0.005208675294525412,-0.030511176603972717,0.0014026824261554678
0.8833333333333334,-1.423066356726251,-0.48144026410240875,98.62269324812924,0.002851535023375073,-0.028703993109676338,0.002125883799383154
0.8866666666666667,-1.4249076296428451,-0.48571396865193367,98.70165104387155,0.0033869685526843113,-0.025612206235564518,0.0013073039563047447
0.89,-1.4317602881953653,-0.4819494450977852,98.76297207671843,0.0006020120495308938,-0.023915250607630088,0.00039999260072509554
0.8933333333333334,-1.419247249442326,-0.4874284794938452,98.84660214008518,0.0016733656110627865,-0.019848476805988797,-0.0004074032726123715
0.8966666666666667,-1.4231121419210708,-0.48713297682864026,98.92381931444163,0.0030535867230278664,-0.018343372607578907,-0.0020457764108761
0.9,-1.4402131496341306,-0.4836917188874085,98.99210647058287,0.0012716113980292736,-0.01127673018843444,-0.0006788191843336828
0.9033333333333334,-1.4316141007616776,-0.48286453598551754,99.06029314187167,-0.001982178011315409,-0.009767130205404397,0.002291841010333181
0.9066666666666667,-1.4382131785422139,-0.4773744489931984,99.14500099600164,-0.0021626636306669744,-0.008328944456678361,0.0020480564658700365
0.91,-1.440739988912968,-0.4817865889802939,99.22187143991454,-0.0011994191622300026,-0.005119353810392504,0.002110834509010157
0.9133333333333334,-1.4308226189442155,-0.4754773516739232,99.29465149525286,-0.0028356295922995272,-0.003004003652325001,-0.00043330262179064837
0.9166666666666667,-1.4399173076125453,-0.47711413031329714,99.37041823649314,-0.0008666782086409492,-0.0007861977554636645,0.0007084068609559802
0.92,-1.4297612023168713,-0.4736690465848584,99.45769505142376,-0.005846944803512213,0.000637389971231793,-0.0018047385631850058
0.9233333333333333,-1.435844038091864,-0.4705362895145782,99.52679493566797,-0.0018722273928876662,0.0030276466336634352,0.002044755231125117
0.9266666666666667,-1.4240552770530246,-0.4721870111534926,99.59398592795036,-0.0020282824134975597,0.0067161686742099125,0.0013594833575220273
0.93,-1.4169125591100946,-0.47794628011879514,99.6650906245845,-0.0036442619544328667,0.008758350170297337,0.001799323707417484
0.9333333333333333,-1.4185730976494837,-0.4683034678689733,99.73011453207492,-0.005412160085691801,0.01225670533830495,-0.0002665585106265244
0.9366666666666668,-1.410196918797552,-0.4585432214703292,99.80899407273539,-0.005956406097441245,0.013493279819320535,0.000722559854803048
0.9400000000000001,-1.4117391134175525,-0.4716567448182816,99.87366504156286,-0.005902790153605323,0.016481408396331998,-0.0004853810068236904
0.9433333333333334,-1.39888323735789,-0.45288743433879863,99.93924587099171,-0.0030126588103033007,0.020739046227578727,-0.0008929031314436999
0.9466666666666668,-1.395670486662137,-0.4433143031090246,100.00466224997783,-0.00730558569052564,0.02372681428809187,-0.00261258926544335
0.9500000000000001,-1.3965612469652036,-0.44450775763401096,100.06651225119136,-0.008250796374134999,0.02500836905667216,0.0007117698482464991
0.9533333333333334,-1.3854472547911152,-0.4378335763090858,100.13045927828986,-0.007026821165459253,0.024814344963354638,-0.0015026922465592183
0.9566666666666668,-1.3729494120952164,-0.4364734651920863,100.18779776063253,-0.00963195533428358,0.030188608995341544,0.0012640736375280643
0.96,-1.3632721086645387,-0.4274116196450558,100.24829742480269,-0.009197626009962082,0.03385015145185294,-0.0020931112343227603
0.9633333333333334,-1.3513717000866667,-0.4139150460893567,100.28398488188526,-0.008059710467573998,0.036394697133319505,0.001440753126848742
0.9666666666666667,-1.340190109714202,-0.41210168328541547,100.34150554374112,-0.008695138671464375,0.03630772681171088,-0.001406226026094682
0.97,-1.3372424344054725,-0.41357430328445915,100.39790685479703,-0.009212767366054513,0.04013587817730098,0.0008177966272946066
0.9733333333333334,-1.3057216967906111,-0.4006870513596986,100.44129115069573,-0.011228308786268276,0.04252157979523906,-0.0010222846899037223
0.9766666666666667,-1.309052945668238,-0.3812887794549808,100.47878842245998,-0.009794664273935466,0.04544555885468051,0.0014916835335048143
0.98,-1.2981511871463807,-0.3884983377882274,100.54070600174619,-0.009304263548854547,0.043539765674798024,0.0006843655903231975
0.9833333333333334,-1.27596096030335,-0.3797520995176488,100.57484346349742,-0.01071495348435694,0.04578188522584789,0.0006308744952572353
0.9866666666666667,-1.2623356084053214,-0.37200934509259687,100.58848571077809,-0.011066060216760449,0.04950984571079774,-0.00016711577305351147
0.99,-1.250927025515958,-0.355346365734124,100.6155980429775,-0.015139683871138832,0.04949690259023197,-0.0014297266253717846
0.9933333333333334,-1.2448788281640888,-0.35242447668090154,100.64437550231061,-0.012521289568312617,0.050397449682426085,0.00023433667942923474
0.9966666666666667,-1.219265650509853,-0.3517331790811903,100.66976343587855,-0.012627253588066774,0.05261439472637947,-0.001158187572442369
1.0,-1.1997570192522347,-0.3343359451848255,100.6886490493616,-0.01567382080094801,0.05441784467160331,-0.0008107227778765028
1.0033333333333334,-1.1933568233903613,-0.3307143238059519,100.71085908834122,-0.013669423285815533,0.05888620555851468,0.0014234660311812956
1.0066666666666668,-1.173177206917671,-0.3013507565847848,100.72564118511099,-0.014478296349175907,0.06107372190092062,-0.0010194943498379203
1.01,-1.1561220966232797,-0.30171042819995303,100.74823958849984,-0.014487585286689081,0.060760986473502816,-0.0001297818329587018
1.0133333333333334,-1.1390160575539654,-0.29180273673002305,100.75640747756054,-0.015046244725932944,0.06249254375272866,0.0025091257516561484
1.0166666666666668,-1.1076680196705164,-0.29247556692110244,100.77734298718573,-0.013903679500719466,0.06352317831399829,0.0029257825834229463
1.02,-1.0921793904777173,-0.27058674234803803,100.78610438458912,-0.015976435712066767,0.06519552214403009,0.0027024436722650133
1.0233333333333334,-1.0723042884340392,-0.2649102496430493,100.79632929044051,-0.011299688926570624,0.06313005398571912,0.0008614138853346519
1.0266666666666668,-1.0582411180417546,-0.25040566808616643,100.82321532041797,-0.014479339369399793,0.06518353557670763,0.0013361616031386616
1.03,-1.0308100048239697,-0.25249498700509043,100.83678358209268,-0.013307195553950917,0.065780756846664,1.8930454882863253e-05
1.0333333333333334,-1.0105288185200563,-0.23715463715725799,100.8475472057836,-0.01647336137237367,0.06402642669181569,-0.0017352158108063312
1.0366666666666666,-0.9886517274838991,-0.2169438316566852,100.87268665157347,-0.011627381523789032,0.06473011312454326,-0.003769681260729911
1.04,-0.9732547868722942,-0.20742365764753928,100.87584717304044,-0.015612097278015297,0.06827730518187386,-0.00027099971228484424
1.0433333333333334,-0.9518014390212608,-0.2103422209420417,100.89995283324707,-0.015017034657623113,0.06965575716284929,-0.002800371914234503
1.0466666666666666,-0.9254298262524085,-0.17784650851973807,100.91748838877356,-0.020371598611177207,0.06688981361444858,0.001029719463154159
1.05,-0.8988029109716164,-0.17197372149259438,100.94634963617634,-0.015062710548701395,0.06980229186056423,0.0032888712779927096
1.0533333333333335,-0.8862961056477356,-0.16859033198777856,100.96925387285755,-0.014461470204300282,0.0687281488832984,-0.0014945151343789553
1.0566666666666666,-0.8640201029842689,-0.1570715092804267,100.98538716397707,-0.017037954276452088,0.06791724984339699,-0.0022486387673861
1.06,-0.8325530863660704,-0.14236185940274493,101.01700144524982,-0.016774228655700073,0.07107866837436046,-0.0002963511210600721
1.0633333333333335,-0.8137104355007396,-0.12906528690929192,101.04902293394971,-0.01677496704382849,0.066180950247756,-0.0004577318321792922
1.0666666666666667,-0.7926036336791804,-0.12045312436226309,101.07057125319368,-0.016264097430334953,0.06944210014754294,0.0011706918203543517
1.07,-0.7630281530559646,-0.1021898977142722,101.1166235083522,-0.014163609788885687,0.06932848679702326,0.002288386993408753
1.0733333333333335,-0.7428737626772975,-0.08805763870636114,101.15318137597434,-0.014674549835000595,0.06800475193255473,-0.0009674159381738538
1.0766666666666667,-0.7150624528164746,-0.08428507313291671,101.19427753467637,-0.012029781278143232,0.06822310019101953,-0.002452621373809291
1.08,-0.7020920674505648,-0.0791080918762164,101.21821119733892,-0.012319303882130029,0.0677963282476258,0.0020685445436690294
1.0833333333333335,-0.6666986321424253,-0.05855940419311563,101.26766365488957,-0.01704137682080094,0.06854238121501813,-0.0021059645681846145
1.0866666666666667,-0.6522455094732793,-0.0464644494386931,101.3052756108846,-0.016100548323170663,0.06329837073477118,-0.0008530243263366968
1.09,-0.6275299001338073,-0.04174589854639517,101.34477216271958,-0.01346578952861231,0.06450070119188553,-0.0009174140755727225
1.0933333333333335,-0.609192086236829,-0.02896743936948023,101.38179926950531,-0.015191179759960977,0.06359149332449855,0.0019040112608180824
1.0966666666666667,-0.5776168486203581,-0.008940441114080194,101.42647481155554,-0.012658201549381244,0.062053752696292444,0.0007379038764695782
1.1,-0.5627830451333107,0.0013329722376546529,101.46151907498654,-0.01241058579241771,0.06236486408938314,-0.001059002283767798
1.1033333333333335,-0.5429384840866701,0.009244962007050484,101.50927026363593,-0.016506952023463556,0.06223720380524754,-0.0007471520947992555
1.1066666666666667,-0.5249172223268437,0.013704381461074406,101.54114584424157,-0.011957180461349535,0.06094336062363281,0.003317635902957685
1.11,-0.5033173274392008,0.02529433503412505,101.57245330702523,-0.013433739252334627,0.05950174998538275,0.0016535589048069798
1.1133333333333335,-0.4860281042228321,0.04549335197443076,101.60950028384937,-0.012733623870196314,0.0574889112367228,-0.0013095679782461447
1.1166666666666667,-0.4674725220458217,0.049041075231759976,101.63562971911499,-0.013238242492195473,0.0559912784241706,-0.00046530924281851964
1.12,-0.43707078615053124,0.05095555273112129,101.68302435811268,-0.01173175430848655,0.05179797516374714,-0.001147750579426015
1.1233333333333333,-0.4257761038492317,0.06789456116527591,101.6919425188176,-0.010271336823210426,0.04856047397462227,0.0007313257262026596
1.1266666666666667,-0.4011980188801834,0.07367252732270127,101.73270131564757,-0.012666945316099378,0.048559112688178925,-0.0026297766039731765
1.1300000000000001,-0.3967609059041721,0.08241060861768086,101.75751613786551,-0.013344704074942908,0.048006523684723204,0.0002691283403184807
1.1333333333333333,-0.3676766605131452,0.09305969110981921,101.7858073002731,-0.010003215260197897,0.047134020037900744,0.0030962349625643557
1.1366666666666667,-0.3502321990071194,0.09685086097611884,101.821269947952,-0.008685718240644031,0.04255799021299097,-0.0019002032218853138
1.1400000000000001,-0.3445908582620263,0.10352307549583625,101.8505039606702,-0.008601358061549316,0.04021283115151535,0.0020548634717126404
1.1433333333333333,-0.32259044286708977,0.11397085968723202,101.86040591132367,-0.00876005723511725,0.038239331065616236,-0.0017264625343488172
1.1466666666666667,-0.30516998229905856,0.11505880448480733,101.89617810908727,-0.008782156472928288,0.03826133055814094,-0.0009450026350582881
1.1500000000000001,-0.29790951450846404,0.12803098208493827,101.92057669997858,-0.0065187392249999926,0.035715750075515626,-0.0017456445034678878
1.1533333333333333,-0.2725188134825183,0.13382360386382638,101.954094681012,-0.008909752720461489,0.031557537733936054,0.0017818144053605024
1.1566666666666667,-0.26587389495840713,0.14450606390642187,101.96920864343609,-0.00620440159892839,0.03230334851137942,-0.00032165292619266674
1.16,-0.2495517480460497,0.14015695872445547,102.00419782982463,-0.006927341395514604,0.02781777668907618,0.00193795927117435
1.1633333333333333,-0.2400337519603966,0.1516715284424523,102.01903477219487,-0.007101067039610037,0.023892391042506237,0.0028109938209033986
1.1666666666666667,-0.22776601782565173,0.15667438551507482,102.04314192577013,-0.006032819710865993,0.020798289124116777,-0.0011589943083942101
1.17,-0.21782334739600626,0.1548633929348438,102.07940678193945,-0.004555809713365065,0.022841946922870435,-0.004047701662173966
1.1733333333333333,-0.20925772479054006,0.15845331663405815,102.09355814621617,-0.004763017770263306,0.019345233503756918,-0.0016349072628457314
1.1766666666666667,-0.20450941347727375,0.161019460032378,102.12487829198295,-0.004369999749130646,0.014978440663408294,0.0005529806430853258
1.18,-0.19960473314465718,0.177480872372825,102.15219196889718,-0.0033243613515516446,0.011586803353938635,-0.0012307642821156955
1.1833333333333333,-0.1887023788642517,0.1829800795095655,102.17327896399135,-0.005744530383854775,0.009433095874782535,0.002989438539523369
1.1866666666666668,-0.2025671361913184,0.17446081491887797,102.20248492826532,-0.0025501151038251203,0.010221763313376165,-0.003676400330486544
1.19,-0.18024557143309827,0.17228756611277093,102.22656344970095,-0.0009643816502007563,0.009539263356510928,0.0017173498317763622
1.1933333333333334,-0.19359807766545126,0.17681884151188837,102.25609050557955,-0.0019389183563489132,0.0027217644710225944,-0.00044695656949036267
1.1966666666666668,-0.1783181998914096,0.17139246590147547,102.284062814954,0.0002920074415732495,0.0022362445546605225,0.00120842128626377
1.2,-0.17732734059072455,0.17612296372211877,102.3178767989163,-0.0036297642508286215,-0.0007647735382782799,0.002329535851890011
1.2033333333333334,-0.17285119773364827,0.1815939949900554,102.34103187901567,-0.00020554202721344216,-0.004312136180894519,-0.0005371064833523089
1.2066666666666668,-0.1805437901300649,0.17215775905530223,102.3723338665803,-0.002219031535081907,-0.009505764183417786,0.0017416051118995784
1.21,-0.1743507553663911,0.16844144394627117,102.40406918894482,0.004655194713238267,-0.011105110569725941,-0.001467543139360589
1.2133333333333334,-0.17693708226666066,0.1669432280381278,102.43727228922843,0.001253583130792046,-0.012833648031179845,-0.002661012805402315
1.2166666666666668,-0.1830726254925744,0.16345882226547812,102.46045712447054,0.0029090365188505956,-0.014452061865169827,0.0009986765655829186
1.22,-0.20134458568937144,0.15853198478761535,102.4891667043335,0.00101436538272047,-0.01680816490975553,-5.943243373837055e-05
1.2233333333333334,-0.19588024729187076,0.13987587456986694,102.51554155869631,0.0011655227887227392,-0.023275268579375147,-0.0015658348258433138
1.2266666666666668,-0.19716796249046092,0.14811024682783702,102.53495101553332,0.004101996384084392,-0.02459958761912428,-0.002772195538831396
1.23,-0.21942030473865073,0.1490769970873422,102.56758662376228,0.005783972577191281,-0.02361271756563362,0.00019538348469816467
1.2333333333333334,-0.21713472853048194,0.13148204877204758,102.58949356153806,0.0037581712182335027,-0.02747295738495014,0.0005137732390916697
1.2366666666666668,-0.24310820318551474,0.1351532252261029,102.62743830525014,0.0027431734179819956,-0.0318064270669697,-0.0007478222586412407
1.24,-0.2431322062382219,0.13340818811891525,102.64467107611829,0.003339281418206575,-0.029891793814220875,2.4332433115633937e-05
1.2433333333333334,-0.2529616115923056,0.12211943777563405,102.66214954825938,0.005390939737750203,-0.03270779711186095,0.001234345987035377
1.2466666666666668,-0.27460556127486974,0.1086981886181793,102.68564413139411,0.008896825471299302,-0.03664584104156187,0.001472709206427666
1.25,-0.2805210189882149,0.09931564046526285,102.70223981302507,0.00955914797454703,-0.038485316856119486,-0.0020252786392264393
1.2533333333333334,-0.27631005132701913,0.10603135672174702,102.72981459539585,0.008024010407672828,-0.038996217661558634,-0.0006824582528994963
1.2566666666666668,-0.30571442990100794,0.08576018930258542,102.75080162534809,0.009292174645338993,-0.04092227941499959,0.0010581120386822858
1.26,-0.31714152495491854,0.08045108853965376,102.76631740031647,0.008037041494098828,-0.044181142874961256,0.0035377888134966945
1.2633333333333334,-0.33067938458032214,0.06942640451895171,102.78279321908704,0.009545782664012558,-0.04652361573245815,-0.0001344227056160154
1.2666666666666668,-0.35832638376312265,0.06469883120801073,102.80134962841477,0.006812917768551505,-0.04568109981386468,-0.002697159985692475
1.27,-0.37244003915606305,0.05157436412591547,102.81326021964244,0.009584660300921213,-0.04471439721249673,-0.0025816874067038638
1.2733333333333334,-0.39353474562136276,0.04540098661670697,102.82008565065169,0.011570324456515844,-0.0490288285721556,-0.00031077475611060733
1.2766666666666668,-0.4080561217790165,0.024275634282220262,102.85683922583377,0.009298301231426808,-0.05145402092060377,0.0013642991845265265
1.28,-0.42539839789469974,0.019737127240021905,102.86179239463146,0.012659249282957936,-0.05251628420693726,-0.0033508734369336463
1.2833333333333334,-0.4500322840703591,0.010223182115248926,102.88508928553668,0.008488034405535761,-0.05255903503757156,0.0006515862099530004
1.2866666666666668,-0.4733595794157184,-0.00382909658966883,102.90167466396761,0.015616342231048607,-0.055173973417851664,0.002458475396714692
1.29,-0.49472235696366657,-0.016597954242784867,102.9170373662328,0.009629200715125264,-0.053210228870666586,-0.0019025362344567806
1.2933333333333334,-0.5157488724188538,-0.03303869105784589,102.93743618976585,0.012599149375962742,-0.056202301624383874,-0.000905280081803861
1.2966666666666669,-0.5349737076599727,-0.0360129377406526,102.95607501252663,0.011938853601667677,-0.055103503134991544,0.000328846179704622
1.3,-0.5507442571902256,-0.052147825222764566,102.9789293081962,0.008954000927087235,-0.06052261249022023,-0.0010058082016728305
1.3033333333333335,-0.5801465323025728,-0.06818178232893218,102.99352925190901,0.007753946780235291,-0.05815609878611573,-0.0013631858956678557
1.3066666666666666,-0.6105531112196602,-0.0816769743279473,103.03441474744403,0.010671846170883117,-0.059342554751025796,0.003436687406484973
1.31,-0.6278506476098266,-0.09065523139365819,103.04415952158998,0.009481083935581351,-0.059623479719400026,0.0008988374918836421
1.3133333333333335,-0.6581002683537361,-0.10507314981810086,103.05509316948782,0.01130791118202426,-0.06250953183549966,0.0024465256550347944
1.3166666666666667,-0.6719020083963442,-0.11203162633451987,103.08128606193819,0.006205479283122116,-0.05806123030962543,-0.002074803193621621
1.32,-0.7018274731084108,-0.1208853932496784,103.1186694103044,0.009101148090784559,-0.058473654346294014,-0.0010048087833292472
1.3233333333333335,-0.7317071228301183,-0.13500634343995874,103.14352340946503,0.014140168858890882,-0.057256578363305076,-0.001288378488152773
1.3266666666666667,-0.7453533370243792,-0.14720011287061116,103.16955178428888,0.012169296837753914,-0.06071356109393685,5.8249115469672273e-05
1.33,-0.7767970883613469,-0.16421976597098625,103.21073027938235,0.00975896223431429,-0.057973594653067874,-0.0005255047974666036
1.3333333333333335,-0.7813491816562299,-0.1825445826450063,103.24652264785436,0.011170643042940591,-0.05652888673463921,-0.0004398477316055939
1.3366666666666667,-0.8244389470757925,-0.19143493192968222,103.27212894836212,0.00990355082650129,-0.05692613223105925,-0.0005033583156075932
1.34,-0.841180690049596,-0.20309086947921037,103.31632493467829,0.0118400348884362,-0.05581074456707586,7.510338175953006e-05
1.3433333333333335,-0.8654489625604721,-0.22027968949891388,103.35183694195585,0.009533975759610222,-0.05777310438273011,0.002283866953168905
1.3466666666666667,-0.8826498735886831,-0.22715978308452506,103.39109062569,0.009872242641720631,-0.05785111130586895,0.0014479939227945357
1.35,-0.9132012578590414,-0.23506276433405396,103.44067610685023,0.013051116647921562,-0.056242391529843824,-0.0006728820754267199
1.3533333333333335,-0.9326281787401691,-0.24490703096253727,103.46563353995688,0.008733530582336856,-0.052287454389093685,-0.0014959488180337672
1.3566666666666667,-0.9622841468919862,-0.24877853241694858,103.51230588132746,0.007265049345924907,-0.05278098987648043,-0.003073481304031217
1.36,-0.9726331271854375,-0.27141111624023717,103.551830578594,0.007515706390265647,-0.05155601884918895,0.00011357966633847025
1.3633333333333335,-0.9977133011014391,-0.2808061856328547,103.59760444180611,0.0068874831331909876,-0.05109287540795734,-0.003812710879474426
1.3666666666666667,-1.014546059323174,-0.2916225089271635,103.64930221962321,0.007686407327810646,-0.05206269733911994,-0.0010357179362535007
1.37,-1.036182810655533,-0.3027895956227802,103.6857873753605,0.008470266383870368,-0.04627640538930095,5.367654545366066e-05
1.3733333333333335,-1.0453929799746484,-0.2999143095064936,103.73799018662274,0.007930830819836069,-0.04625812174345492,-0.0015847637077547909
1.3766666666666667,-1.0738591458114082,-0.3134323397737786,103.77901489469465,0.006339692887980195,-0.046386657549819785,0.0001487016389581708
1.3800000000000001,-1.089929728580517,-0.32322093388802864,103.8342381636164,0.006553154329113896,-0.043737086207483046,-0.0011863675851219464
1.3833333333333335,-1.0988818550770467,-0.33069870578376653,103.89203315714455,0.003842029904666121,-0.041821633028098534,-0.00014808700247783752
1.3866666666666667,-1.1276403005097932,-0.33884107541185393,103.95007880911311,0.003855037711249687,-0.03863604568783825,0.0016259502768849474
1.3900000000000001,-1.1433222787138362,-0.3381902012095676,104.00464372587501,0.006700007641717876,-0.038798910887174784,0.0021138015757877237
1.3933333333333333,-1.1488875433256565,-0.34793967565315315,104.06238694051774,0.006176981620370788,-0.034007034060188714,0.0011744960477028399
1.3966666666666667,-1.1611104899091171,-0.3449169222005155,104.12831697323738,0.002227196230776573,-0.03232801438918203,0.0020525090943654804
1.4000000000000001,-1.1753799287729705,-0.369150631720093,104.18177533662784,0.004280440314975235,-0.03224541515649482,-0.0014413157674636628
1.4033333333333333,-1.1820267796089041,-0.3538968297343057,104.25340359848907,0.006885313128114013,-0.0326699893240606,-0.0006760718672407278
1.4066666666666667,-1.1922838632179285,-0.3674976193635972,104.32575750311683,0.0018741046301855846,-0.025215065579112128,-0.0019125890203261996
1.41,-1.198193455879442,-0.3702109975821829,104.39127350078206,0.002300063072393699,-0.0264526978749362,-0.001574329436298543
1.4133333333333333,-1.2092299584525004,-0.3764044194135186,104.46978604579253,0.002923872121623239,-0.024265233813850918,0.00028478057677785014
1.4166666666666667,-1.2157033014438294,-0.37399985165573635,104.54104498838788,0.002060458778332693,-0.020281994285163363,-0.001293259578841628
1.42,-1.2216591567208954,-0.37211990214701784,104.60927505126517,0.0004522062634477349,-0.017870735399354305,-0.0004877675567864203
1.4233333333333333,-1.223495355957156,-0.3710049126723626,104.67153898573781,0.0002323590295343367,-0.016242338410430858,-0.0017206719257921263
1.4266666666666667,-1.2361280455392112,-0.37553016903021,104.72049685318191,-0.0004060928130251633,-0.01596606802404233,0.0006227041700011949
1.43,-1.2266686890875589,-0.37488451060204064,104.77548226137424,-0.0014328806238473298,-0.012726788558799633,-0.0015148504134456483
1.4333333333333333,-1.2364240064185494,-0.3670730526410251,104.82780640460967,-0.0016564781084916543,-0.009954650328467273,-5.1207572547268764e-05
1.4366666666666668,-1.2379334322965245,-0.3701543088136809,104.89119393521668,0.00016657220805841547,-0.012658605018209888,0.0008566791751031463
1.44,-1.2328061892855124,-0.362886380026,104.93933288934902,-0.0005539842081563381,-0.008364638384365408,0.0005474054194414369
1.4433333333333334,-1.2165195845684122,-0.36346492329558067,104.96685475411299,-0.0026281668211630875,-0.0057373193935734736,-0.003347598839999133
1.4466666666666668,-1.219362394493675,-0.35081563932376725,104.99488830059332,-0.0005618506118234089,-0.003663598157231906,-0.00018043858584880783
1.45,-1.2041878554947063,-0.34747137167773745,105.01377353679285,-0.004429738153655702,-0.001985234169630062,-0.0006955318929227435
1.4533333333333334,-1.2124944887844193,-0.34792816455973186,105.02406886009804,-0.0015925024691449505,0.0023062010060585455,-0.00037068190988847764
1.4566666666666668,-1.201553238110741,-0.34161405072764794,105.05900266813228,-0.00043934702400176247,0.00038419959538364104,0.0004444649298897904
1.46,-1.197458847376253,-0.3388214116534515,105.0852529544406,-0.0013287444704760067,0.005399357185726988,0.0004133300675497509
1.4633333333333334,-1.1838680461777504,-0.3297566308682736,105.08163550618038,-0.00449347870788765,0.0068811906675338525,-0.00016056331200255572
1.4666666666666668,-1.17775765577791,-0.3226731088410691,105.07401092688212,-0.004479088287073443,0.007180544092853038,0.001146108618693824
1.47,-1.1614654271112805,-0.3272063861773883,105.04685696004188,-0.0035500405141150153,0.010067463972578098,-6.737206231168308e-05
1.4733333333333334,-1.1663446995018727,-0.3110351442320072,105.03418256602151,-0.003916319379933863,0.011866667682220418,0.0017705174097495241
1.4766666666666668,-1.145479872619925,-0.3033446946348309,105.03685842911723,-0.0038910279171195383,0.0110496101094447,-0.0008666744965629115
1.48,-1.12601643056425,-0.2930728834258964,105.02363955951908,-0.002558249959918413,0.012459943487682701,-0.001427242374840967
1.4833333333333334,-1.120005354118663,-0.2916425309167082,104.98729072936949,-0.0006126677246421387,0.016746395095247286,-0.00097836776979277
1.4866666666666668,-1.089366123148465,-0.27829556588637916,104.95340719868102,-0.005892464990546963,0.01618860337064026,0.0029033010883525636
1.49,-1.0795171355519417,-0.26711960027895393,104.92142345371416,-0.006214099858710811,0.01665352757965352,-0.003245466491494677
1.4933333333333334,-1.068385370188854,-0.25841790021057387,104.88883631510156,-0.0062783864222897365,0.01685247513904595,0.0002568142408810802
1.4966666666666668,-1.04996205045124,-0.24347507955926828,104.85408638197522,-0.005866655428313956,0.021002303298175953,-0.00422272709336793
1.5,-1.0304821518227116,-0.24591009245115975,104.82675258642112,-0.004477223676142035,0.020531769698073566,0.0009703500678370976
1.5033333333333334,-1.0280439039127234,-0.23217552869770436,104.79966764504378,-0.005881375760628991,0.020842955687030047,-0.0005422201113399439
1.5066666666666668,-0.9878126733495175,-0.21032983108970502,104.78183081247201,-0.005338325837334334,0.020654055171887748,0.0016716897311887687
1.51,-0.9755072142405226,-0.20894095582948607,104.75663895142894,-0.006288043092954763,0.020855628569541335,0.0011995340053013222
1.5133333333333334,-0.9602331606593482,-0.18975391520138932,104.72943048890714,-0.004803714840604519,0.02027337696131112,-0.0012829070081981037
1.5166666666666668,-0.9321977308553203,-0.17183831099713098,104.71199892813532,-0.007578383762027914,0.019122017677492466,0.00040055378492266365
1.52,-0.9167709805183157,-0.177722106555512,104.69689010713915,-0.01051187005671031,0.023590484404976818,0.0002273386444466015
1.5233333333333334,-0.8979090048561535,-0.15431129808374322,104.68360319413365,-0.009077292301978642,0.018735416967561085,-3.6141100571554066e-07
1.5266666666666668,-0.883491792661044,-0.14775388605753806,104.68543858412538,-0.003986302019110356,0.025180644935944813,-0.0005206441313645966
1.53,-0.8566642050851132,-0.12795908765930164,104.67709689707114,-0.005003155326883703,0.022798391176978988,-0.0019061777298978887
1.5333333333333334,-0.8449648644971414,-0.11526269208044981,104.66739742048003,-0.006691404390893395,0.0238307167912839,0.003444883299053246
1.5366666666666668,-0.8202176223374571,-0.10556011502056556,104.67514034378648,-0.006422297788506181,0.025963567443804212,0.0006137839499517822
1.54,-0.7987261379838975,-0.1045071498477726,104.65808746176828,-0.008956416793946174,0.022007505912418172,4.723690986496369e-05
1.5433333333333334,-0.7767174628310687,-0.08801182478564853,104.66743548646672,-0.007216482226841976,0.02181567069691054,-0.00020001789990405793
1.5466666666666669,-0.760301269090082,-0.08056942549691126,104.66161986199776,-0.004523812626191646,0.022766124966284156,-0.0013094902500478405
1.55,-0.7320401329420717,-0.06553594260493106,104.66844996372018,-0.004777162903408853,0.021530125124643692,-0.0030069305999440685
1.5533333333333335,-0.7147440998249412,-0.053305918745173986,104.66429305458894,-0.007365305614356282,0.020354452030184766,0.0011350636717416542
1.5566666666666669,-0.7009366274891217,-0.05324293358985557,104.66265213945148,-0.005676549051673948,0.01831521763266599,0.0013887683917490235
1.56,-0.6822179668267999,-0.03771926056336996,104.6573925765479,-0.007365349259459638,0.02110893330979747,0.0012792658104837894
1.5633333333333335,-0.6591448581976087,-0.03368247764752211,104.6546748939896,-0.005028824393116551,0.01953464822272745,-0.003003746425121512
1.5666666666666669,-0.6498801265780317,-0.017808523054374102,104.64749819804241,-0.006606036288805743,0.016296559284712908,-0.0010365180201832352
1.57,-0.6321315007318087,-0.017493509210799285,104.62546754061096,-0.005809072864787709,0.016498434812551345,-0.0006434246358182947
1.5733333333333335,-0.6212825984975396,-0.005317155430491616,104.62197689264029,-0.004765031653596729,0.015829791423412128,0.0007587874327324879
1.5766666666666667,-0.6101385745162486,-0.005019850398891538,104.60293694496626,-0.00410532628000661,0.013111236460529375,-0.0026915676631606654
1.58,-0.5936527637229744,0.010547424500747943,104.59419623234793,-0.0030739246057259317,0.012816107589302886,-0.0013247161988806204
1.5833333333333335,-0.5763541666051879,0.012567530858311816,104.56480270489833,-0.003984880637984081,0.01117419468204702,0.0014691348894260694
1.5866666666666667,-0.5791483276404759,0.015651469010111038,104.52871245445253,-0.002783958740655793,0.010650874278189717,0.0011928738213922716
1.59,-0.5528070735227982,0.021222512836359928,104.50792372812617,-0.0058596155133556075,0.009237691585021137,2.743313824672484e-05
1.5933333333333335,-0.5532744366403436,0.023069672691082715,104.46789577552052,-0.002010563689046928,0.007529673985690533,0.0015109545782759813
1.5966666666666667,-0.5353674055385091,0.03140774336513207,104.43040824216274,-0.0053950652103834035,0.009307581774254435,0.00021781812860826758
1.6,-0.533150691841703,0.02608769180529489,104.4016065228991,-0.00016659888770151343,0.006111186567765467,0.0003738520596178686
1.6033333333333335,-0.5328362760214463,0.034799036110517434,104.35023971713551,-0.0023670983978694125,0.0012528092941147023,-0.0006341543051656052
1.6066666666666667,-0.5154514365824522,0.04206290235827184,104.29431167958586,-0.0016113114125561317,0.004316260700523866,0.0003013205748723233
1.61,-0.5216393166709166,0.035938745680274,104.25814972384292,0.00024487277010237893,-0.0013436963292617246,0.0004960834228515624
1.6133333333333335,-0.510005887679896,0.03990974910211921,104.18777595655966,-0.0010592088711609245,-0.0025777870692056436,0.0018108558224883735
1.6166666666666667,-0.5078856485536631,0.03885374039215243,104.13721369056684,0.0010626410382086292,-0.0005512414020486505,-0.0021148199359614928
1.62,-0.503192115571689,0.046212742378351934,104.08875639636763,-0.0003847820934497198,-0.0031443633588526822,0.00110502269519096
1.6233333333333335,-0.5070794789865818,0.03245687194363536,104.02496568059911,-0.0006691123929542246,-0.006750541696003617,-0.000900790025866967
1.6266666666666667,-0.510279544696936,0.03547988360580589,103.94489770309386,-0.00219944089072741,-0.01042377178575144,-0.0008030305634815845
1.6300000000000001,-0.5182138137578572,0.029690226380684002,103.88270186088057,-0.0013372509511744408,-0.006298454385866667,-0.0012685738329235073
1.6333333333333335,-0.5197294466528378,0.02829612089413588,103.81422965965501,-0.0029650820152968865,-0.011660844018506047,0.0011627270740584687
1.6366666666666667,-0.5277877544811009,0.026626116969112122,103.75315279554535,0.001617105836915636,-0.012700932129688779,-0.0025323049095098368
1.6400000000000001,-0.5239755036084144,0.021508645391578374,103.69118306580263,0.0025315442551269744,-0.012820025876560228,0.0032049570229578123
1.6433333333333335,-0.5403884149985575,0.018916845773406542,103.61087407053445,0.0030068278250547243,-0.013530211229784863,-0.0017651198222826375
1.6466666666666667,-0.5482666223619085,0.015416620667503676,103.54473402277898,0.004240630075390904,-0.017683871750498792,0.001688714806716065
1.6500000000000001,-0.5538752239023487,0.01167002399898677,103.49264183158103,0.0021415762082519114,-0.01901666904295145,0.001497297116919218
1.6533333333333335,-0.5597911281091988,0.012072042987835378,103.42220635144312,0.0015627369220238916,-0.02005153834549512,-0.002916528870423709
1.6566666666666667,-0.5747818499268429,0.002184163404841945,103.36922556111865,0.005094541729452281,-0.018078266978549543,-0.0013383379101743998
1.6600000000000001,-0.5813489969248553,-0.0179592674401923,103.3024909450365,0.00384951488512213,-0.023759249217495372,0.0006941504553730963
1.6633333333333333,-0.6000757343137167,-0.020540433736673778,103.24216624489128,0.002380087114449192,-0.020503541568396615,-0.001875160369183234
1.6666666666666667,-0.6149821532938805,-0.02583716548126947,103.18240431943151,0.0017063273445263767,-0.023607422852955563,-0.00040526428300616095
1.67,-0.6306548414563752,-0.02945631194644468,103.13099235738984,0.005713097688115704,-0.023094672887949086,0.001008372209718789
1.6733333333333333,-0.6424292775235005,-0.04413109622870298,103.07210631060651,0.0023922024368952704,-0.02862809690637024,0.001140887458615295
1.6766666666666667,-0.6535662875553551,-0.046606326946484956,103.00646598422615,0.0019491028371293115,-0.022475522647414422,0.0016844606553811366
1.68,-0.6685147297127751,-0.05640028822492345,102.95305722554716,0.006028316701085197,-0.027921987231657813,0.002358224196810576
1.6833333333333333,-0.6804230510948649,-0.07097325831095881,102.8859986051851,0.003169502796596105,-0.025693669782230994,1.5422581471563308e-05
1.6866666666666668,-0.6941019183271627,-0.07330917183466276,102.84005155133144,0.004414684237289609,-0.028427965733499466,0.00043180184666054614
1.69,-0.7117795325129515,-0.08292046917557078,102.79005492915778,0.005514949527279274,-0.02923532770536288,0.0020291174296360086
1.6933333333333334,-0.7258791109036558,-0.09716839496400695,102.72051796718219,0.004074495951065902,-0.026700372270883677,-0.0001702752626100545
1.6966666666666668,-0.7524723631645592,-0.11504727089406232,102.67270218941444,0.003389277205304214,-0.027852524375288543,-0.0023416888362379636
1.7,-0.7627692939025577,-0.1157499798744019,102.62037636973707,0.003061582876708088,-0.026339150177880542,8.467961528153288e-05
1.7033333333333334,-0.7835741231993814,-0.11776376930717272,102.5609880988123,0.0026224905484688653,-0.025802123880081886,0.0006198347489156629
1.7066666666666668,-0.8037638883444911,-0.13120603517140503,102.51093356057395,0.005024242409502878,-0.02778752756903514,-1.1374265519993238e-05
1.71,-0.808858941716467,-0.1390305822972634,102.45252341255741,0.003229009988856809,-0.02764244015902557,0.0021602485966537507
1.7133333333333334,-0.8280280033787705,-0.16269763350481867,102.40031865975367,0.003855359500655995,-0.027787973347825626,-0.0027276754167766004
1.7166666666666668,-0.859975966757183,-0.16383712754684818,102.34229713002904,0.004587043810578865,-0.02774624987089777,0.000389718746146967
1.72,-0.8743872520328906,-0.16997621877971358,102.28473332611614,0.0041441419657289,-0.026042643391968767,0.0006232198984347646
1.7233333333333334,-0.8818572283011666,-0.17576083460564773,102.24048308797416,0.00316956098151851,-0.02905747020361016,0.0008285794842971656
1.7266666666666668,-0.9024013455159552,-0.18712813146839347,102.18874736814125,0.0030394972262901745,-0.02677309560109313,0.0017935586612804774
1.73,-0.9226502927872079,-0.1994424680361879,102.13773183846055,0.0037396468079273653,-0.026126991865227243,0.002880457970833259
1.7333333333333334,-0.9315002244436765,-0.19562540945731033,102.09595538867856,0.003275088331831111,-0.025483606698674968,0.0006200686810363399
1.7366666666666668,-0.9422119063275426,-0.19760029593953984,102.03426433941074,0.004924644577331165,-0.025592806051127185,-0.0004836710580512209
1.74,-0.9518044351100995,-0.2258263878534337,101.97502365689145,0.004826528005946001,-0.02202437522474883,8.808309824791846e-05
1.7433333333333334,-0.9647988759074815,-0.22043937371987699,101.92875250064056,0.0005158142855439295,-0.02586391874949882,0.00016802700765195015
1.7466666666666668,-0.9884314565873701,-0.2253227149593066,101.88381076967539,0.0006198971086423164,-0.020191207204231513,0.0005399438536523243
1.75,-0.9974624025184646,-0.22312545001520429,101.84295763893263,0.0021928692787225534,-0.019404206533823135,-0.00042514531832230003
1.7533333333333334,-1.0107863214527968,-0.23981632458232804,101.79600502728975,0.0029640839230249258,-0.021283052372183753,0.0020733018706565317
1.7566666666666668,-1.011898586197446,-0.24215976447695584,101.74119376375181,0.0005428122316120541,-0.018851382278749558,-0.0010501100463707028
1.76,-1.0206823939792427,-0.24667740147699338,101.70238795608728,0.0031434804923023106,-0.016806450114807685,-0.0010237454840776677
1.7633333333333334,-1.0305274892023277,-0.24817246066622642,101.64894820773546,0.002348630891469943,-0.016041524959562996,-0.0013147943374057552
1.7666666666666668,-1.0289252361702323,-0.24810766823415273,101.62745008581206,0.002823677922616517,-0.017203488067771534,-0.0031603734039008877
1.77,-1.0500524388192587,-0.26062365128258225,101.59129250120313,-0.0006813064367631209,-0.016257738513815054,-0.0011573513147192897
1.7733333333333334,-1.0553454530118134,-0.25591958424782973,101.54101564908757,-0.00019510152131713013,-0.01248105124500563,-0.0006845297902907298
1.7766666666666668,-1.0525335855392328,-0.2472402288652559,101.5037634247429,5.893516165205066e-05,-0.013056454448017597,-0.000683687200531251
1.78,-1.0677414835991947,-0.2537824141666752,101.46192008227945,0.0006104425306961744,-0.012573503892367468,-0.0028255102847710603
1.7833333333333334,-1.0597637310140606,-0.2688099874651641,101.42467791483055,-0.002721578573810539,-0.01108386937440476,0.0007045905170188356
1.7866666666666668,-1.0524825704292222,-0.2667507483027595,101.41008326092555,-0.002858091600679291,-0.010147712647304177,-0.0018699386414518858
1.79,-1.0561672437341616,-0.2610847040330076,101.37515746738738,0.001425771625196656,-0.00995114693341792,0.0019868117479444375
1.7933333333333334,-1.0633336802082263,-0.25585672339572396,101.33571139920211,-0.0007632109305151278,-0.010817341680641976,-0.0013107044218435993
1.7966666666666669,-1.0488415673651108,-0.24768019930461777,101.30704999985225,0.0003984695763796696,-0.0074944752639215075,-0.0009343641935892464
1.8,-1.0595773073031607,-0.24351669483094684,101.27999614223685,-0.0005970117532906335,-0.0062388166346753135,0.0001697334341624291
1.8033333333333335,-1.0416324710675988,-0.24263890759201348,101.24547700138714,0.0003195521336213249,-0.005725100093095302,-0.0007447501757883663
1.8066666666666669,-1.0528361379342939,-0.2442216272958984,101.21039548987963,-0.0034875307071806417,-0.0060150463551643905,0.0002735845431835546
1.81,-1.0401982780996262,-0.24154908689943913,101.17188563826333,-0.00035391557485493774,-0.002257219715916982,-0.0014519702283733405
1.8133333333333335,-1.042168917600264,-0.24031213889533412,101.1342188342723,-0.0027351778953919868,-0.004924007494202672,-0.0026023753589187143
1.8166666666666669,-1.0173758998471365,-0.2202773514646096,101.09575374199771,-0.0005499845342224072,-0.0011387800078169765,0.0010209798593929507
1.82,-1.0224092963066762,-0.22417315942376842,101.05511746993933,-0.0012609847454756367,-0.0004520830018565009,0.002787012762373448
1.8233333333333335,-1.0128907655224368,-0.21471968197115915,100.99324832791228,-0.0029876850644773626,-0.0005922306964249839,0.002190724398876914
1.8266666666666669,-1.0058891148141615,-0.2054885704508716,100.95510784255212,-0.0008024660294921246,0.002218214865181714,0.0021645944882510114
1.83,-0.9957173710218858,-0.20146126940893405,100.89871452676117,-0.002233054365719824,0.0006850557225927589,-1.9926760229254378e-06
1.8333333333333335,-0.9859177974137716,-0.2031405737737193,100.85726361094677,-0.004925799176418163,0.001092265037202471,-0.0009663131503744366
1.836666666666667,-0.9661657691121659,-0.19664581743792148,100.80010830500808,-0.004121866132540775,0.003910933072393941,0.0011234249759304576
1.84,-0.9589667451067834,-0.18599513121777136,100.73689903145409,-0.0027497376240364036,0.003992828392314845,0.0016077849232711003
1.8433333333333335,-0.9409779740960389,-0.17274975880083754,100.67151830851786,-0.0009514829888078019,0.001984005005775902,0.0016120187214288002
1.8466666666666667,-0.935025580356176,-0.16438618407180278,100.59056162268914,0.0007679723802800479,0.0007932284393329775,-0.0012403986027295056
1.85,-0.9231578834343878,-0.15608386368844931,100.5241431387103,0.0009120921980026596,0.005203796135557746,-0.00013656924021248498
1.8533333333333335,-0.9129427097428167,-0.1539399836912043,100.44943387946962,-0.0012932030448001481,0.002801378309420174,0.0018502845249518767
1.8566666666666667,-0.9058118519390195,-0.14626997654942808,100.35645146227013,-0.000845166834640279,0.004886644785601064,0.0023663980687848537
1.86,-0.8929524061938087,-0.1448353954843746,100.28079466246736,-0.004205497810600253,0.0053070994140007235,-0.0006491377090597482
1.8633333333333335,-0.8696258436660811,-0.13287215108133404,100.1851316857827,-0.0012567503006899552,0.0037747660659231967,-0.0011762467135039067
1.8666666666666667,-0.8656844389078806,-0.12621234073426915,100.10011369948329,-0.0014972813127382795,0.003217044267343682,0.0020041212178569683
1.87,-0.8633224895386891,-0.11085442883845838,99.99590152912661,-0.0046275955660086705,0.005192647819269223,-0.0007187546614950438
1.8733333333333335,-0.8430952844626128,-0.11055417443491194,99.90133806827849,-0.0032877299099744774,0.0013007528995538074,-0.0032161809760120987
1.8766666666666667,-0.8406479833483549,-0.11073342636146882,99.80023144752474,-0.0024793348423830337,0.003388124444218162,-0.0011253031272221272
1.8800000000000001,-0.8222112776942316,-0.10590219069604544,99.7100645397413,0.0009536157144074313,0.0022543693122875135,0.0035203327333057487
1.8833333333333335,-0.817441473937377,-0.10439298187923553,99.59569736965197,-0.001612795004074369,0.0031100054166923147,-0.0015602397856785684
1.8866666666666667,-0.8017705438027919,-0.08358327249651896,99.47308266158153,-0.0036515406055127072,0.00022552281889672097,0.001199409072412382
1.8900000000000001,-0.7911400417095555,-0.09167644581014794,99.37023823751507,-0.0034767409070207214,0.004019680733240057,-0.00048557560159609095
1.8933333333333335,-0.7780428374681456,-0.07606143295724102,99.26393827320553,-0.0023113843815499753,0.0018655507791432813,-0.0004304505997177226
1.8966666666666667,-0.775416319486364,-0.07843798699154195,99.13735854776476,-0.006195037814976134,0.0021287966023511495,0.0007026889396651743
1.9000000000000001,-0.7675374868890101,-0.07757687838631518,99.04249090109845,-0.0011649669091417553,0.0009727029820584427,0.0010300660316683462
1.9033333333333335,-0.7563734096094089,-0.0696252181788397,98.9288957623222,-0.001099166450978321,0.000290169388914591,0.001336408552745465
1.9066666666666667,-0.7598317508675378,-0.06565165236689925,98.81208395659625,-0.000747196282970001,-0.0006328795802108132,-0.0006067104087744236
1.9100000000000001,-0.7422373883385683,-0.059885659490800554,98.69534646961229,-0.0023825121389141847,-0.00432331561497802,-0.0004920332043178696
1.9133333333333336,-0.7436225516302817,-0.04894489406133046,98.58293341924565,-0.002975870742041493,-0.0022654505755157614,-0.0013528823642597295
1.9166666666666667,-0.7304801808086936,-0.056382612512265555,98.4663716964377,-0.0013936376863882705,-0.005130212913354955,0.0011177236690967315
1.92,-0.7296514018785477,-0.05811213175932666,98.35504560957628,0.001083628948866051,-0.0031951341177724455,0.002593937736802224
1.9233333333333336,-0.731467263545041,-0.052111811405904485,98.23898663442922,-0.0016210096874908994,-0.0023426290638948093,-0.0020967593680306464
1.9266666666666667,-0.7236550706088344,-0.04713192725490153,98.12806390180624,-0.00011188635807156356,-0.004166940535459393,0.002183528646609502
1.93,-0.7244201482798319,-0.0551839468953301,98.01216629399407,0.003233500948228051,-0.006681519022020729,1.644589714096708e-05
1.9333333333333333,-0.7250374862508583,-0.05007151305220407,97.92433523766435,-0.0022984685332974072,-0.003478350203001022,-0.0005238274818719518
1.9366666666666668,-0.7287858185209972,-0.04826508791009085,97.80422872224443,-0.0009390283594942814,-0.004016429034338676,0.00024292622351386193
1.94,-0.7250556436024197,-0.06125400171144992,97.70517923815622,0.0001234936792029411,-0.00842757213732444,-0.0006336450350751118
1.9433333333333334,-0.7398763818996748,-0.0633960988956497,97.58943741585595,-0.0010241432381326214,-0.00438645009874079,-0.001317920371612867
1.9466666666666668,-0.7347100601499632,-0.056544379336350675,97.47449661864763,-0.000760153917030762,-0.0071721317482254,0.0011694238559924212
1.95,-0.747760263448229,-0.0581057245094154,97.37411893389704,-0.0012014439700210298,-0.01140565472878606,0.003263971939472847
1.9533333333333334,-0.7484370525235121,-0.05792454291044311,97.26451089634757,0.0018339136596465324,-0.011597215618860218,-0.004067455259068483
1.9566666666666668,-0.7377674485609426,-0.05977739182393133,97.16941999992693,0.0029484927310313457,-0.009080980011373876,0.00028868388375854917
1.96,-0.7493495317428895,-0.0734240378175145,97.05221375729425,0.004884269686324414,-0.010524468028150168,0.0001675354569752341
1.9633333333333334,-0.7620566876953166,-0.07548591666808199,96.94099653222897,-0.00021553854141828947,-0.011550127559323175,-0.0002825996607101392
1.9666666666666668,-0.7645678597237086,-0.07850959234254459,96.81188534032556,0.0005986745331085857,-0.011158307511186384,-0.0005362457465861261
1.97,-0.7679863387983624,-0.08302559604204032,96.70580017887562,-0.00019959421096430656,-0.010171131824321293,-0.0026754028758222675
1.9733333333333334,-0.7818572362530699,-0.08455364780789165,96.58418289521636,0.0007235225667471847,-0.011351930034561149,0.0005658731476834819
1.9766666666666668,-0.7974922583777506,-0.09073559017868797,96.45785899165918,-0.0009013406775536332,-0.015141126792471347,-0.0010555430256179714
1.98,-0.7983990537160864,-0.10076017085112128,96.33778534218288,0.0010640667249890178,-0.014738217673024044,-0.0005966282990931566
1.9833333333333334,-0.8008866330789451,-0.08950015567114745,96.22020935296504,0.0015252895683353803,-0.010977181571754521,-0.0009237985778520905
1.9866666666666668,-0.8137247167540225,-0.10612082332596816,96.09558655413542,0.003489091726140686,-0.016394472253967812,-0.001400072090882824
1.99,-0.8263909708684147,-0.11527052111531497,95.96350650526647,0.00237254831987015,-0.014704611817151486,-0.00043995914608699614
1.9933333333333334,-0.8377706279988562,-0.1317114495994924,95.84252706895776,0.005158317685489816,-0.018812612622758677,0.00012662507647718345
1.9966666666666668,-0.8456862810900277,-0.12053192922788633,95.70461420190314,0.001468731243972907,-0.013845850336212254,-0.0020770780039858906
2.0,-0.8433559566950976,-0.13162082357472318,95.59156192638642,0.0015393936365942589,-0.013727548100177536,-0.0015637058505702799
2.0033333333333334,-0.8724643807162075,-0.13597779193924886,95.44899962983524,0.004723787829554506,-0.015891890111155167,7.933187016924115e-06
2.006666666666667,-0.871281902132297,-0.13416847025809303,95.32009509626016,0.003517990550599803,-0.01579925216820431,-0.0022571741676728476
2.0100000000000002,-0.890731460900698,-0.14542026956554774,95.18442093333661,0.005452631379696291,-0.013055833484010095,-0.0014241828011786841
2.0133333333333336,-0.897621260464888,-0.15027441970143526,95.04652272699508,0.003667740202886279,-0.017482099892268035,-0.000551095374573911
2.0166666666666666,-0.898042094527324,-0.14936093943855594,94.91651339887716,0.0022379002535274205,-0.015555951565136436,0.0032035624647020877
2.02,-0.9163265653973317,-0.1569256846641003,94.77644089245968,0.00023423668361324595,-0.014816972897692082,0.0007636764455869322
2.0233333333333334,-0.916172960848757,-0.16877994850669495,94.63270430555897,0.001414008447760153,-0.016111491502640324,0.00032981039984563754
2.026666666666667,-0.9197284510570697,-0.16947405810404387,94.48752160562924,0.0017026168190915289,-0.013354097158760668,0.002211160739045201
2.0300000000000002,-0.9336116663332467,-0.17332902730143654,94.33707650007976,-0.0019151218993818388,-0.012510244410360536,0.0003695525490704518
2.0333333333333337,-0.9410937599948196,-0.17470841848907467,94.19693168705392,0.00011426001390831583,-0.012949039798507454,-0.0039473504421145165
2.0366666666666666,-0.946807975501128,-0.1736592593852672,94.04923393848104,-0.0017385948349897718,-0.014712140784243117,0.001525863727806685
2.04,-0.9565191775048555,-0.18571366907572073,93.90760721854352,-0.0006937468109850998,-0.012300168352985238,-0.0005614862390959825
2.0433333333333334,-0.9541784885875105,-0.18177297525822803,93.73044613479162,0.0006320120180545858,-0.013711937407397387,0.001557103188119169
2.046666666666667,-0.964598392676711,-0.19244840987364073,93.55583138463588,0.002778996121035831,-0.011292836001171836,-0.0022373332518923097
2.05,-0.9594185816692136,-0.18324876764445797,93.37123250309484,0.0016886982714941637,-0.012360724499822322,-0.0009367103200099324
2.0533333333333337,-0.9629547611597025,-0.18655449698945173,93.20530597823564,0.0008153397180333086,-0.011048775415377932,0.0020957785952288896
2.0566666666666666,-0.9754607330739413,-0.1990935278644862,93.01582621846987,-0.001018622095557011,-0.006583925992472322,0.0019584529274598553
2.06,-0.9750097871994531,-0.19117766687934193,92.843969044893,0.0019411411134162327,-0.01168330282562443,-0.00039785179436783807
2.0633333333333335,-0.9702843678626175,-0.19501442649109696,92.64297257644714,0.001606215248746765,-0.009312717602552168,-0.001394448929571828
2.066666666666667,-0.9831231990423169,-0.18808164325380491,92.42138318455682,-0.002638504647689661,-0.010476666269991601,0.00403111465799462
2.07,-0.975319524222667,-0.18593115073733496,92.20422256420082,0.0010864613721538671,-0.007102847993116822,-0.0021168189386074304
2.0733333333333333,-0.9777341930164529,-0.18379056196443097,91.99794776153433,-0.004036423229940463,-0.006276438921499922,0.0014220142633048602
2.0766666666666667,-0.9714134847627509,-0.1882545880644831,91.77530961356334,-0.0017439686639711383,-0.0069121320236805155,0.002795219933805232
2.08,-0.9825516619591234,-0.1857786203772108,91.57636829040568,-0.001456212823223973,-0.004224953198065357,0.000706406882046345
2.0833333333333335,-0.9801814006486314,-0.18621107441584678,91.33586475914377,0.000979256991359126,-0.007957177647586933,-0.0005400429081766834
2.086666666666667,-0.9673080348992649,-0.17968545157881816,91.10929750468517,-0.0014117412660917248,-0.00406290006563398,0.003105789374237773
2.09,-0.966078125442997,-0.177887676888126,90.86979882833572,0.0031935935338075184,-0.006983742957378502,-0.00030742333814081616
2.0933333333333333,-0.9755321922423178,-0.17549189736410442,90.64442653899107,0.0031494576584851428,-0.005780787191126534,-0.00018252229650403816
2.0966666666666667,-0.971916389141839,-0.1726781438188654,90.39811674007483,0.0006285568803942062,-0.004560541195675751,-0.00045654856330481694
2.1,-0.9490785083280143,-0.16562107896327122,90.16760220815313,-0.0002927646328914474,-0.00674861995352475,0.0032400675849469864
2.1033333333333335,-0.9617424364769509,-0.16212874933364835,89.92481699463193,-0.0016406688928803073,-0.004943083356881268,0.0021094715108078183
2.106666666666667,-0.936594976559706,-0.16728448648702307,89.6813678836094,0.00029429933832894953,-0.004612991279018899,0.003045250521469798
2.11,-0.9430894789744784,-0.1561633520740298,89.4556266690239,-0.002835792834749113,-0.0029212232809677644,0.0013580836308130283
2.1133333333333333,-0.9343344166011484,-0.15199252808810693,89.19126764518413,-0.0003799110325452276,-0.0005779542147323945,0.0006281364067187862
2.1166666666666667,-0.9333149386650869,-0.14568855423713714,88.95885574970609,-0.0007521354653334602,-0.003572804615518834,-0.0012591024735806489
2.12,-0.9205035653779842,-0.15303280286385335,88.71310838698051,-0.0011560525459416405,-0.00417929389505588,0.0016002922502023104
2.1233333333333335,-0.9149765995332149,-0.13978985373299427,88.46319771680376,-0.001047783629103476,-0.00021442849428330007,0.0008079590830029484
2.126666666666667,-0.9117714489743695,-0.1409155931969743,88.22663714889057,-0.0004459615890620483,-0.002864423439852254,0.0014044987538895954
2.13,-0.9076657771209637,-0.14063447987409516,87.98825969510166,0.0019152169305521743,-0.0041216463708550165,-8.873691683549172e-05
2.1333333333333333,-0.9083823086177155,-0.13239351127993776,87.75281387181408,-0.0037012480043072133,-0.0039964522004282774,-0.002471371248048624
2.1366666666666667,-0.8897179268260127,-0.11934440057739062,87.51140641334077,-0.002304292527800332,-0.0026528604352077435,-0.002028326032935732
2.14,-0.8883138568846304,-0.12491924263387594,87.27374939863728,0.0018023154187569433,-0.00261006696693538,-0.001947042563945515
2.1433333333333335,-0.8967839875205468,-0.1135399017710818,87.053018318267,-0.0027724256752272663,-0.002320443125263522,0.0009714376723067845
2.146666666666667,-0.8880668422291824,-0.12144463173911547,86.83886544146968,-0.0011776090343846995,-0.0059541827660129845,0.0006380157952928155
2.15,-0.8813731529902067,-0.12265773456365159,86.61818780317043,0.00026626012969817976,-0.004819735998489909,0.0008434672564063583
2.1533333333333333,-0.8717665205871515,-0.10883834555362434,86.40014522444957,0.0018200489196964465,-0.0034334945243890847,0.002247105239612411
2.1566666666666667,-0.8655297363113788,-0.11752208487432499,86.18637575618943,-0.002552700319115286,-0.0033683980984500718,0.00137888579881408
2.16,-0.8629649972094485,-0.11036512195578846,85.96841913163318,-0.0009198884711766559,-0.0021795349725649577,0.0014730753607997162
2.1633333333333336,-0.8669688463013665,-0.09572686769084283,85.7511617067535,-0.0005145931634184894,-0.007224036740309598,0.003770964209451492
2.166666666666667,-0.852191910865402,-0.11060348704622533,85.55772899861695,-0.00012985258073676598,-0.007000229019301223,0.0033687151676112565
2.17,-0.8577287135504722,-0.10224466036108908,85.35092938612429,0.0016571097532359245,-0.00512304170007749,4.5489721813332735e-05
2.1733333333333333,-0.8486717512674992,-0.10270304019251643,85.14489023321046,-0.00029936690233425703,-0.004272635340974458,-0.0005299627336777536
2.1766666666666667,-0.8558349427682095,-0.09591758541889711,84.93727928651596,-0.003086312794297114,-0.004200050445339115,-1.55983967783751e-05
2.18,-0.8487650799172439,-0.11166003214159101,84.73356598595954,-0.0006099344298120953,-0.00441130492522958,-2.2771474724755758e-05
2.1833333333333336,-0.8506543542754184,-0.09995687521055167,84.51910963343836,-0.0013878667090734683,-0.008095765617191839,0.0006445177336107175
2.186666666666667,-0.8473070385364381,-0.10603131561281855,84.3263656963353,-0.0025896195438052105,-0.005993761632833903,-0.00018397092347081923
2.19,-0.8514496913861663,-0.10367486629745179,84.11601596616842,-0.001349987883472415,-0.007005985008738169,0.0009154920720930415
2.1933333333333334,-0.8526866402240915,-0.10342675868804518,83.91797835120667,0.0005954916286530159,-0.007448977498734516,-0.0004956481030699996
2.1966666666666668,-0.8495308432151594,-0.10002947422399848,83.70543462431779,0.0008452748224790114,-0.007065569044792604,0.0024522876540479365
2.2,-0.851720223962912,-0.11012078693578549,83.49921549439009,-0.0011240703744615503,-0.008530632113891466,0.0003272750972087673
2.2033333333333336,-0.8479175273449777,-0.10309196033549281,83.31573767548801,0.0011455440016206703,-0.0071875589551899,-0.0003454355133366493
2.206666666666667,-0.8490748501548373,-0.10668876084386834,83.12437877466644,0.0008783113944677348,-0.010367555165427875,0.0014495847636967457
2.21,-0.8559727067679084,-0.1146413232278672,82.92553229226459,-7.073175615214257e-06,-0.007721795783244336,0.00080039647990711
2.2133333333333334,-0.8612825626307162,-0.10610262660203817,82.72271213477595,-0.0010289654405946592,-0.009378954095535727,0.0021692125618111976
2.216666666666667,-0.849522911949606,-0.11385694395578602,82.53668356171261,-0.0011111140307566633,-0.007585306630723057,-0.0009450200682564126
2.22,-0.8666005529154092,-0.11219400474163613,82.33598870904896,0.0008257859115886854,-0.01122294804751655,0.0020551242145872913
2.2233333333333336,-0.8672437090214845,-0.11529685293315664,82.13952025009573,0.00028294726172100216,-0.011529666683167007,0.0009296738330301652
2.226666666666667,-0.8643787283126579,-0.11752414857555281,81.9510071465738,0.0011406561770747523,-0.010613401869084913,-0.0009583076882343402
2.23,-0.8779172580500276,-0.10805262221486975,81.75284060473427,-0.0019636191713041477,-0.011985424049891415,0.0013746248748301635
2.2333333333333334,-0.8821133341198971,-0.12758037691226337,81.56834945542606,0.0012817985458002923,-0.012972807633915666,0.0010480836783990264
2.236666666666667,-0.8870095290989463,-0.11738047158108085,81.37270093198528,0.0012079585219531893,-0.011791604921982338,-0.0005106941553187521
2.24,-0.8852777219673817,-0.12205331196645024,81.17605210992296,-0.0010051259612458845,-0.00889092129534514,-0.0015108106395733453
2.2433333333333336,-0.891111007467709,-0.14374392683412746,80.98819370133653,-0.003055466776258704,-0.011029087891858743,-0.0006358723725739853
2.2466666666666666,-0.9014667955506289,-0.12158240346162538,80.8076255511138,-0.0007587424339055988,-0.010217887325173583,0.004352077822260118
2.25,-0.9043736009857009,-0.12875874672155602,80.6219640994557,0.0019091179781062931,-0.008826308256408509,-0.00405978345848504
2.2533333333333334,-0.908005812693497,-0.14940221885765684,80.43339854347268,0.0047546906527098625,-0.010846019465155139,-0.00013930092696789624
2.256666666666667,-0.9278789828270025,-0.1489058010128716,80.23826958373934,0.0037348230270198754,-0.011159225144527581,0.0013416059765647937
2.2600000000000002,-0.9199756657674487,-0.14137298236379917,80.06309182389623,0.0003882111783926537,-0.00843545304505208,-0.0015110428639751696
2.2633333333333336,-0.9222401691569018,-0.14612009182302024,79.88917806946927,0.0006320323567213005,-0.012001293262404535,0.0008293624385328245
2.2666666666666666,-0.9258679795587278,-0.14329796598595188,79.72178187692997,0.003317851620921231,-0.010132777047262866,-0.0011797680790798088
2.27,-0.9314170476345829,-0.1456258375884111,79.56697345573518,0.001905147449720278,-0.00893923235021758,0.0009240224730912085
2.2733333333333334,-0.9333637341011547,-0.1463906765063023,79.37910470858047,-0.001614881849791481,-0.011597966479666016,-0.0007854821678884286
2.276666666666667,-0.9392910612246723,-0.1488881788572044,79.22744013546652,0.0009418820617882094,-0.011516706963414305,0.0019109815884309
2.2800000000000002,-0.9388357138152809,-0.15338119587434498,79.05546232170838,-0.004082575854800773,-0.008956821111346281,0.0006914116504343491
2.2833333333333337,-0.9427156974818914,-0.15052260536684883,78.903295723396,-0.0018965739057029902,-0.008832421751713148,0.0017515995938134818
2.2866666666666666,-0.9529643287079186,-0.1495566177724518,78.76348811203265,0.0007462011455468947,-0.007526077085189977,-0.0004301892707137774
2.29,-0.9492682684243219,-0.15627672532881234,78.6221264097667,0.00015540916645086743,-0.007335962478713206,-0.0014583261645072679
2.2933333333333334,-0.9470794297760067,-0.1632260259979058,78.46498832917999,-0.0001860998536627586,-0.007610856387026752,5.883007471202648e-05
2.296666666666667,-0.9501912446359796,-0.1597004916167168,78.3267868856933,0.000840801090580179,-0.008662943212298862,0.0016288520652731138
2.3000000000000003,-0.9639624385180529,-0.16499150865072432,78.18785546527195,-0.0011508980635485074,-0.00781747942190147,0.0003601806792522038
2.3033333333333337,-0.9552597554920164,-0.16332557532761008,78.01971831786426,-0.0018715669992650967,-0.007423602449823364,0.0006390011706947959
2.3066666666666666,-0.9561896979464193,-0.15830036416149082,77.85836760893862,-0.001977205747006089,-0.004732007674198913,0.0015766444744479539
2.31,-0.9519013596519058,-0.16078693789510332,77.69338929594379,-0.0003341589553184248,-0.008019831680748109,-0.0010765235907995191
2.3133333333333335,-0.9541248205250097,-0.1611275376269053,77.52535077234408,-0.0031073242283628,-0.007402842315862042,-0.0016340926366057813
2.316666666666667,-0.9589211302433752,-0.16146921788577898,77.3723356333608,0.002900439054215645,-0.00840954940369411,-0.00327784697188625
2.32,-0.9511413413785411,-0.14315639904081048,77.19341480016345,0.002266317230084288,-0.008757262130190775,0.0009431760428116936
2.3233333333333337,-0.9461798917774819,-0.15587312869816183,76.9979333166705,-0.002571688293425971,-0.006369145118744276,-0.0027174743421347638
2.3266666666666667,-0.9559846738354629,-0.15811681681219802,76.78963651582448,0.004852856644008413,-0.00731685260816474,-0.0028859101156564508
2.33,-0.9416493652853012,-0.16068147601706992,76.56904134255575,0.002401051662741275,-0.008562110845402916,-0.0007579811782194928
2.3333333333333335,-0.9465828779552905,-0.14011284142525507,76.3563982665601,-0.002112329187752719,-0.008657399371611975,0.00011713221525026492
2.336666666666667,-0.9525051274468277,-0.15141655253727906,76.14829390294088,-0.003094469803960988,-0.0073384220013062666,0.0015510292049434032
2.34,-0.9510856630480427,-0.1475768118438281,75.9381893620082,0.0003209116479775235,-0.004701688525603081,0.00023131009205257244
2.3433333333333333,-0.9385453995115844,-0.1425086514787169,75.71616120521928,-0.0013362628128661368,-0.006745606857266109,-0.0006494066866015658
2.3466666666666667,-0.9393125949651305,-0.1463630889146481,75.50335057452381,-0.0005276852812760552,-0.0059456149245670185,2.8763254991363472e-05
2.35,-0.9448241300753384,-0.1376312382852888,75.29548702212263,0.0012193326119427231,-0.007393371143962641,0.00042503522026951534
2.3533333333333335,-0.9423420050209598,-0.13867023069132145,75.07829512306428,0.001230473658415358,-0.006155793381545769,-0.00038327432910669325
2.356666666666667,-0.935044724153738,-0.13589438312591204,74.86995092256545,0.004116146247496548,-0.00534526693547061,-0.0036231325409519567
2.36,-0.9414625742082341,-0.1289994778203096,74.6574412896423,0.0035317657477497632,-0.004080346289660259,2.9268806992288476e-05
2.3633333333333333,-0.9257097229098138,-0.13250082207984093,74.92425525505422,0.0008160773439557542,-0.006811208940048211,-0.0001525885822347966
2.3666666666666667,-0.926262169861563,-0.13155546257869546,75.34573910813106,-0.0013188607364297137,-0.008506483003296842,-0.002994189418759551
2.37,-0.9322018301611368,-0.12995541213067638,75.77488373853029,-0.002928467530685446,-0.009098081056085663,-3.6873283610118006e-05
2.3733333333333335,-0.927942500162174,-0.1238786993321386,76.1983134135728,0.0037849512286536094,-0.007416916401961496,0.002579419563598743
2.376666666666667,-0.921423457968724,-0.12697203313840472,76.6195647796939,0.0013747182833684568,-0.0063282207938887254,-0.000403854102899449
2.38,-0.9268035894285764,-0.13390322619389983,77.04721842940802,0.0002456062648023879,-0.005593057857241044,-0.0013677479681110615
2.3833333333333333,-0.9166726043914832,-0.137103729331973,77.0978436025779,-0.0009811162000102772,-0.007518881524949958,0.0005502184854320536
2.3866666666666667,-0.9227688973582439,-0.13055944754064858,77.02868747673335,-0.0013594786005354071,-0.01008276292698944,-0.0011273858187461825
2.39,-0.9109825765222681,-0.13933271182602747,76.9546735703411,0.0020669551502542445,-0.007907288875077231,0.00042416357322352233
2.3933333333333335,-0.9148462507011372,-0.12147382092678173,76.87973177824766,0.0016039089041440498,-0.009072657625855515,-3.0477426187357895e-07
2.396666666666667,-0.9213161165497339,-0.1292055870985656,76.81363049498088,-0.0012757439701215258,-0.004371271495505837,0.00035839080909148764
2.4,-0.9110079314762022,-0.1151335914266442,76.73820703858901,0.002712617941724004,-0.0036294778792868255,0.001406003233856276
2.4033333333333333,-0.9207030241462147,-0.11588478165390792,75.70047013671339,-0.0004623739622657538,-0.004898124563894152,-0.0006715601751864111
2.4066666666666667,-0.9180062759739687,-0.12405446508207203,74.36858140870562,0.0015483661390425225,-0.00507504286893334,0.001971818766534995
2.41,-0.9148530885313875,-0.11483765472083263,73.04836863355827,-0.00037081919231489056,-0.005127396497293976,-0.0022956727094385226
2.4133333333333336,-0.9091256238658443,-0.12766569252822685,71.71307824061701,-0.0020861402430243986,-0.00873032734436778,0.0015215100567446656
2.416666666666667,-0.9105757871950695,-0.11716275582198178,70.3895011148216,0.0004178905737381932,-0.004480952339272284,0.0001552341366360109
2.42,-0.9147850113867569,-0.12295316886707734,69.04555644920532,-0.0021255913718769767,-0.006427226069826755,0.0006382006878750444
2.4233333333333333,-0.9098953706000887,-0.12813061490321997,67.52485558941777,-0.0018780144895951202,-0.00952958553721196,-0.0010277276065091647
2.4266666666666667,-0.9150509892719213,-0.12185648090211608,65.92404797597769,-0.0010317816874146016,-0.010721594420074783,0.0005735129024970958
2.43,-0.914277481124487,-0.12506022963897945,64.32267053539982,0.0005459970020105098,-0.008545262345449374,-0.00045389166081894014
2.4333333333333336,-0.9207981687720134,-0.1307230328086391,62.72634378983316,8.101066670589333e-05,-0.008900486679908531,-0.0026560690925337533
2.436666666666667,-0.9147298907111671,-0.13531732661729884,61.13410081524104,-0.0010385387298591485,-0.007447462311958751,-0.0007206165984619673
2.44,-0.9264719019056052,-0.12588710665205888,59.53319121519095,0.0009740455634424875,-0.01218518710922398,-0.0021353847933689835
2.4433333333333334,-0.9277729353119147,-0.12367942969202904,57.38981688672109,-0.0007483068835721471,-0.007329150734960631,-0.00011594958347613263
2.4466666666666668,-0.9272468659452572,-0.128907196484545,55.08594066247566,-0.000159041802677453,-0.00857510525305251,0.001440873354273263
2.45,-0.9454640624635129,-0.12402745442108294,52.790427595120065,0.0011825161728210227,-0.008073713875174495,0.0006109332312620143
2.4533333333333336,-0.9386448644762911,-0.13432698912539714,50.478947797113854,0.0016403688737775383,-0.007205231869454692,-0.004364073216759867
2.456666666666667,-0.9466664072241451,-0.13115477049235472,48.17426670929648,0.0009227369839637253,-0.0093445325038404,0.001819001530561203
2.46,-0.9446289665043339,-0.13474677339390148,45.871839265916186,0.00036528484023621893,-0.007992810540042165,0.003635975237147494
2.4633333333333334,-0.9581274815822939,-0.13318981401948574,43.977733782387894,-0.0005337573769758266,-0.01072104949953802,0.0006684297302326387
2.466666666666667,-0.966718682653755,-0.1334820169037272,42.18573784009452,0.0029285023927217214,-0.0068117958046456815,0.00044507527473839085
2.47,-0.9581652792544766,-0.1257475933810624,40.42799089352069,-0.002561545293408836,-0.007979950928683097,-0.0008779616286784197
2.4733333333333336,-0.9739515349059504,-0.13152238404106112,38.64182660783483,0.0016342678346874164,-0.01019414943454021,0.0017985173939916706
2.476666666666667,-0.9723354884533735,-0.1315160820379691,36.868685008581664,0.0017835754737842878,-0.010244046986726131,-0.00048247581994667344
2.48,-0.9748071359657857,-0.12489383825074488,35.0901753787765,0.0012055445917522043,-0.00887099475188672,-0.004103311306077724
2.4833333333333334,-0.9754945282711291,-0.12823309056863552,34.28260868952718,-0.0019867021277483704,-0.004240750236767326,-0.0009825056630923105
2.486666666666667,-0.985053317212289,-0.13581159611045834,33.78389964083744,-0.0016402926269538736,-0.009328009819155816,0.0003211437778644519
2.49,-0.9792013866686193,-0.1308685219094731,33.28482921763807,-0.0023970085513435545,-0.006005824685566881,0.0030188258731206753
2.4933333333333336,-0.9792878443906418,-0.1350814767018557,32.77828045476274,0.0006176723972435358,-0.006525653303651852,-0.0006259236842845688
2.496666666666667,-0.9867865616285053,-0.12928571008097606,32.27060104850821,-0.0008250730705005676,-0.009752405730692915,0.001722362045098366
2.5,-0.9799594737543253,-0.138496734135084,31.77072023868916,-0.002173825022116706,-0.0019325533297262021,-0.0021954138829126772
2.5033333333333334,-0.9882734457919532,-0.13129582421267363,31.496442067959222,0.00232975681707677,-0.005895709358862076,3.587038477625082e-05
2.506666666666667,-0.9884686860653824,-0.13666532264820497,31.284822775877352,0.0003105094243153568,-0.00602076741351791,-0.00036853882251925026
2.5100000000000002,-0.9935121968113314,-0.13679958497380712,31.089174501130163,-0.002396754986557127,-0.0069226681796279365,-0.0028080277921790995
2.5133333333333336,-0.9886376181952148,-0.13564807800075887,30.904425855838394,-0.0005240673278585122,-0.007879484003855542,0.0006448176299626652
2.5166666666666666,-0.9871811073482177,-0.13773815569972522,30.71031964554377,4.596170469930766e-05,-0.00440460912539477,-0.0017769194384657495
2.52,-0.9875400712774245,-0.13720273576756298,30.50138818024425,0.0002789128553647724,-0.0054743634707388805,-0.0037849185165960758
2.5233333333333334,-0.9896906750519504,-0.14154375565922375,30.358219325092993,0.004252859625165232,-0.007191715254557061,-0.0018917799498824783
2.526666666666667,-0.9764302747371155,-0.1289599087816034,30.216464826209084,-0.0003962249764505009,-0.007547254508887406,-0.0013055474329972403
2.5300000000000002,-0.989340119235967,-0.13655314966668855,30.08509133521385,0.0004139967989711524,-0.0044817537967599234,-0.002824694184426669
2.5333333333333337,-0.9862692866431801,-0.1398377504772767,29.942580271391027,-0.0005035872019970413,-0.004487768655167234,-0.001243390490104903
2.5366666666666666,-0.9797826181664986,-0.14226506314078247,29.822964238543427,0.00024749541377995466,-0.005658765816179409,0.0021938238656555183
2.54,-0.9824237827797864,-0.14672601512047004,29.693954980264596,-0.0007781817299624626,-0.003252344465789235,-0.0014808321170809882
2.5433333333333334,-0.973127892399683,-0.12998919230897993,29.54433699728159,-1.2174501618383328e-06,-0.0048315864144124745,0.0014099982260053392
2.546666666666667,-0.9747077092116201,-0.13149599955101274,29.413194926082824,-0.00138228967060439,-0.00440308559542248,0.00018292074433431192
2.5500000000000003,-0.9711723066339826,-0.1318513040467891,29.27762678751727,0.003609713978280749,-0.003229056739571293,-8.48976108120793e-05
2.5533333333333337,-0.9785581163663918,-0.13960417192333732,29.15043820524227,-0.0019265575351676669,-0.007752649875782027,-5.058014231210423e-05
2.5566666666666666,-0.9673203670712663,-0.13211520605586247,28.996757468803352,-0.00040481916014942926,-0.002065602734259797,-4.0173190810326086e-05
2.56,-0.9616258273149271,-0.12698790995077316,28.867061188987805,0.0003647963963254932,-0.007363321198123842,0.0014159932762296539
2.5633333333333335,-0.9577959799887665,-0.1315592813450238,28.768312675347776,0.0027353587253916745,-0.005803852991937435,0.0005139589677776687
2.566666666666667,-0.963109821825523,-0.13535830435759288,28.68056552089407,0.002651287214925241,-0.002416581055089057,0.0012555691584716503
2.57,-0.9500533276782058,-0.1287774020896338,28.60259493784933,-0.0007030939091814466,-0.006678074154886075,0.0029979829732246464
2.5733333333333337,-0.9553215673084234,-0.13229867614682284,28.516770163840093,-0.0005115590885342161,-0.0063668472625810785,-0.0001485771791014949
2.5766666666666667,-0.9596653613104427,-0.1268371073337767,28.43359754001955,-0.0025681674389135293,-0.00949154341136542,0.0002557078046453702
2.58,-0.9526559248365408,-0.13609772800697215,28.34827820354543,0.0011978287392609313,-0.007274792798212265,0.0015679239280825244
2.5833333333333335,-0.9442434225335851,-0.1270581960374071,28.23133731426728,0.0007299247659255274,-0.003030155844494177,0.0011134676988293793
2.586666666666667,-0.9501983509981987,-0.14017919009372992,28.105986830569023,-0.0031519992277087286,-0.009301717854571376,0.0013384868643781416
2.59,-0.9441827951010219,-0.13305213958734916,27.97266911932972,-0.0014422653850034311,-0.004082260003947378,-0.0015532502365264054
2.5933333333333337,-0.9487512820210584,-0.12745707335835982,27.84447854627708,0.0015213996478626757,-0.0049866034138736585,-0.002241785230914217
2.5966666666666667,-0.9448600502371638,-0.12593033363357914,27.710144070587837,-0.0014386435582259306,-0.006454993620431839,0.0015210792030163516
2.6,-0.9478874960437086,-0.12376014307521703,27.583373457034906,-0.0017234313135607482,-0.0074839488901038325,8.204408578102618e-05
2.6033333333333335,-0.9343841116674733,-0.13313577979396843,27.464084874207167,-0.0007248881130700233,-0.00413855191421183,-0.0011432026263503835
2.606666666666667,-0.9522742908530977,-0.11833092397845488,27.313906706525426,-0.001343359245167956,-0.006328845119888714,0.0024197711741195185
2.61,-0.9462553228674747,-0.13386797171102266,27.18695672038107,0.003093116067897167,-0.007027244913753457,-0.0005283952672838725
2.6133333333333333,-0.944434133216043,-0.13951239298960563,27.04866357977916,0.0005152187724147375,-0.006022010480213106,-0.0011756895237022087
2.6166666666666667,-0.950897126565659,-0.13187158812423017,26.912050766908525,0.0037811845978996473,-0.003897007157932605,0.0005559472185017432
2.62,-0.9481896628786844,-0.12906314228530869,25.340573528454858,3.088996652111654e-05,-0.007344389483359504,-0.0001217565449619633
2.6233333333333335,-0.9535859814506171,-0.12845602024526098,26.647298787381974,0.0013766463071631955,-0.004527107351763648,0.0010607823788058406
2.626666666666667,-0.9554099172180037,-0.1359031946679747,26.51409419366209,0.002326065533516267,-0.008584855227716804,0.0018360964866925848
2.63,-0.9474946143233566,-0.1346368099715251,26.39092938057112,0.0013972880977648331,-0.007268508804857413,0.00027597223582582564
2.6333333333333333,-0.9522089405598696,-0.14565348568729378,26.26989552483084,0.0023830138658183695,-0.005819893585571188,0.0009091229461763793
2.6366666666666667,-0.9586578859547648,-0.12548801283664884,26.150922353615922,-0.0012779001870919949,-0.009121875436025365,0.003710354270743144
2.64,-0.9601633496465676,-0.12051048364105135,26.01277500548099,-0.0013392799573530892,-0.008232928800727431,-0.0006693383207507192
2.6433333333333335,-0.961817734292861,-0.13591564779389562,25.884878664345056,6.111352968732157e-05,-0.011100870895037904,0.000346575295226694
2.646666666666667,-0.9615432278206065,-0.1254509148984259,25.755873384453523,0.0019140176423420635,-0.008136557293904998,7.858931519261709e-05
2.65,-0.9655413438642763,-0.13422326509334018,25.632744819291577,-0.00023423684916402206,-0.009635973260283731,-0.0008357756883681979
2.6533333333333333,-0.968008734849743,-0.13061587061542096,25.5043940509547,0.001515104289454954,-0.00942724874356266,0.003973850247210034
2.6566666666666667,-0.962271446606563,-0.13623553213016115,25.38370572598664,-0.0009368536858578955,-0.008497144119102285,-0.005102449983790498
2.66,-0.9768931696271524,-0.1346035380675474,25.264363535208567,-0.0002736459481305782,-0.00829272744161982,0.0005053166965915842
2.6633333333333336,-0.9696495786396285,-0.12766284010632184,25.141764128246372,0.0028836270295411995,-0.007359131870059638,0.0007622644939574169
2.666666666666667,-0.9809759141195921,-0.13504637122354968,25.033189806733297,-7.961693314551108e-05,-0.005922339456826049,0.0013614213435410238
2.67,-0.9869194942024131,-0.1385098173658215,24.939489631820976,0.001501042658175833,-0.006734957386017636,0.0025892205837562137
2.6733333333333333,-0.9804758177568501,-0.12980990930916483,24.82012706388065,-0.00035845169129125994,-0.007160381197050387,-0.0007922972940666426
2.6766666666666667,-0.9774495498112619,-0.12832169095392693,24.710909903143296,0.0048214989711770065,-0.004902734093532226,-0.0008867914578259136
2.68,-0.9803247756254295,-0.13203669823933206,24.614242422372758,8.768031244345498e-05,-0.007201259471566813,-0.0014842380976980833
2.6833333333333336,-0.9868554682298876,-0.13078198106287903,24.497693782560603,5.2291463045198475e-05,-0.00879193364871986,0.0028964431771301194
2.686666666666667,-0.9766879339415279,-0.13563325306435559,24.404900317758617,0.0031484844245443094,-0.005608242190841133,0.0006577897212438304
2.69,-0.9914138505305077,-0.12892670372273096,24.29560685082657,-0.00286940590636421,-0.0061808105859672505,-0.003524197296065839
2.6933333333333334,-0.9964948601885905,-0.13547883659884596,24.20142821519224,-0.00017644514005624905,-0.008230858457097128,-0.0015213612696773262
2.6966666666666668,-0.979339502481492,-0.1339064964040599,24.106242312625234,0.00041639600279225214,-0.007178320843345179,-0.002776186388381321
2.7,-0.9919352291657972,-0.13952694013385772,24.011890604927288,0.0033991943867170953,-0.005874241428249759,0.0007403879395611253
2.7033333333333336,-0.9862797277621386,-0.13808181172953168,23.899566729083723,-0.0022948464147623743,-0.005895274082091294,0.0014104307688515365
2.706666666666667,-0.989122902427257,-0.13611701313351932,23.80516831537784,-0.0021381836230890483,-0.009552892050007165,-0.0030238940611998053
2.71,-0.994061071801447,-0.12943292210993929,23.715673783376033,-0.004011573783474524,-0.006218811259060908,-0.002318532239531395
2.7133333333333334,-0.992916218128045,-0.14411721689734758,23.61264647302426,0.0005194608795913544,-0.0069891054981855985,0.00015071714332572092
2.716666666666667,-0.988966291068035,-0.14116988611262662,23.523703143786047,-0.0003026492047952608,-0.0037419483184188257,-0.00180356776624854
2.72,-0.9929322806482727,-0.13318553964411334,23.422991513025593,-0.0005928086173715716,-0.004510768201047536,0.0013548814231023935
2.7233333333333336,-0.9886581759306928,-0.1358909675606303,23.31919772422684,0.0011673848411907523,-0.008247374406590503,0.0005644052742340715
2.726666666666667,-0.9879191017821931,-0.13138750471526392,23.20930640356353,0.0020667300350709814,-0.009992779041714557,-0.00035387599955181797
2.73,-0.9926581239807024,-0.13523419511190554,23.12369250430376,-0.000463425773307787,-0.005638065441157979,0.0005682251921550618
2.7333333333333334,-0.9802240801823425,-0.13737515850700413,23.031189989362844,0.0023232886665353254,-0.006344120021082817,0.002154946809729628
2.736666666666667,-0.9967163222581099,-0.1418235202312059,22.922038055298138,1.8822678762808699e-06,-0.005830657010268936,-0.00010073076628582468
2.74,-0.98870254518705,-0.13323134090897573,22.822003339207214,0.00022181982545131846,-0.00505646429137011,0.0030958737007309293
2.7433333333333336,-0.9886116841784975,-0.14092606900279536,22.74748150203917,0.0004047319320042397,-0.006594800837057208,-0.0012529753585107252
2.746666666666667,-0.9813671909332252,-0.13454183834947003,22.635887103503393,0.0011353960340842687,-0.0057401078833948,0.004982550378442449
2.75,-0.9937233515691496,-0.13680194759555908,22.53663200362419,-0.0013191440978367144,-0.0050075860839640515,0.001453793843608804
2.7533333333333334,-0.9869759636080057,-0.14330351607015424,22.446681962970484,-0.0018479311325250833,-0.006286423451857666,-0.0018221855511426407
2.756666666666667,-0.9798877412756146,-0.13307126788927598,22.346499914721896,0.0022458317577606687,-0.00787384715589263,-0.0013176599356106834
2.7600000000000002,-0.9884645324402233,-0.12730719909544994,22.260850672755303,-0.0030143210894811147,-0.008521557623400938,0.0025842310381400052
2.7633333333333336,-0.9888095599982207,-0.1351545161629252,22.15142646991101,0.0013218853900253133,-0.005017270745975813,-0.0034399133752917805
2.766666666666667,-0.9885548798078041,-0.13515370507194432,22.071812504048484,0.0014242525539928997,-0.006576300190643406,-0.001433283878230433
2.77,-0.9901141045151205,-0.1422091468807522,21.969909661803324,0.0039472948579931805,-0.005495598353260817,-0.00196978184110093
2.7733333333333334,-0.9887992816062195,-0.13767047593940368,21.874112432762786,0.0002477456224484584,-0.004502722230805118,0.0017377842100577145
2.776666666666667,-0.9758253289608129,-0.13950933930053688,21.779167092374,-0.0024118528159053675,-0.0046008703243506895,0.0013247036994577064
2.7800000000000002,-0.9909681550368155,-0.13297410289615233,21.68089319316983,-0.001522067571932903,-0.0055049749906076265,0.0008152530251890349
2.7833333333333337,-0.9875193596244933,-0.13334662583863094,21.595512296011247,0.0003006649280644019,-0.005912839037697534,-0.000390089308049659
2.7866666666666666,-0.9870481009091773,-0.14268519433272445,21.5115959063908,-0.0009729995743172798,-0.006240376584516946,0.0011381805300309284
2.79,-0.9796734208061095,-0.13579269168631036,21.431849109643426,0.0006549558919174823,-0.007132730481620964,-0.001259632138294937
2.7933333333333334,-0.9857137346842273,-0.13475217149428498,21.34134388472238,0.0038011616847750994,-0.007735823382129015,-0.0014695545504955093
2.796666666666667,-0.9872782612627746,-0.13228735679515782,21.25755970191042,0.0009072104630723233,-0.0035375791548415253,0.002255218265051381
2.8000000000000003,-0.9795459224657829,-0.13274844631544294,21.161284942426885,0.0005667571882176513,-0.005768084787544047,-0.003046130876291097
2.8033333333333337,-0.9757579079633822,-0.13258107243387324,21.080678576926392,-0.0007071130392503703,-0.007328664066538742,0.00039385810195335534
2.8066666666666666,-0.9969207215091745,-0.138894613777131,20.998072159302495,0.0038513651826490927,-0.004894307827836638,0.002702502283655426
2.81,-0.9791859520130755,-0.13339489680891142,20.925820640153955,0.0030486702585004613,-0.0051407031252584156,-0.0017504747408241198
2.8133333333333335,-0.9819435464980911,-0.13810007008021505,20.852892202988563,-0.0004208514775772107,-0.005326854171731798,0.0026716168227117016
2.816666666666667,-0.9788768788664255,-0.12840322048728975,20.766382062523302,0.0009216510388988386,-0.009075626846376536,0.0021245089474982775
2.82,-0.9907593449796032,-0.13575541953476866,20.691011972059925,0.0018790242805480691,-0.0065776252007513246,-0.0008111124464874426
2.8233333333333337,-0.9932314418203146,-0.13020349575684392,20.618108413722606,0.0014394637402482184,-0.006120321533062551,-0.0007103148488785589
2.8266666666666667,-0.9944541177594387,-0.1451357851939055,20.52967568463132,-0.0026503101009633305,-0.006809575447737764,-0.0014383079476659225
2.83,-0.9870341222652852,-0.12366130508001812,20.442982355347603,0.00337596533664611,-0.005474103957944417,-0.0008772465398493361
2.8333333333333335,-0.9886266778465846,-0.14075699235070596,20.36843909884398,-0.00039420127125221877,-0.007359408879235575,0.004621203491541451
2.836666666666667,-0.9874118563302392,-0.1281374694350394,20.292521347377306,0.0022698705730077088,-0.009291994649975856,-0.004270934283297817
2.84,-0.9902405664954236,-0.13105053506293865,20.20722282229749,0.00377169177628126,-0.005524712987520191,-0.0030793553181656776
2.8433333333333337,-0.9844384272691709,-0.13058482030345087,20.13795907456971,-0.0008120505209853082,-0.0048653343656552064,0.00042638433193374853
2.8466666666666667,-0.9765864791511268,-0.13695222317292424,20.071569607939956,0.0008395447539660777,-0.006000708273660201,-0.0015681466021710022
2.85,-0.996959623847355,-0.1348211134325286,20.004978442963644,-0.0013621719137265956,-0.004568816207705113,-0.0014503569909056647
2.8533333333333335,-0.99634430419654,-0.13581599644622128,19.93123750269001,0.0010083768215287075,-0.005303204459800652,0.0020272010827115127
