time_s,accelerometer_x,accelerometer_y,accelerometer_z,gyroscope_x,gyroscope_y,gyroscope_z
0.0,0.0001214806532559414,-0.00182838292024875,-9.78503943901878,-0.001293097241229224,0.0006897760632990338,-0.00024507238503064727
0.0033333333333333335,0.0007608132723664583,-0.008274089058899271,7.587488979116203,7.15667311958203e-05,0.0003077411914774124,8.682263993839796e-05
0.006666666666666667,0.00044051776982236197,-0.002137566260773921,12.074890644580327,-0.0010867992564732151,0.001171803479999004,-0.0005365528818507017
0.01,0.0004480487778039522,-0.009866217682674415,16.572764310759535,-0.002335034427413999,0.00031940095075112194,0.0025969101770107732
0.013333333333333334,-0.004288778052795979,0.0050374566540508205,21.07299368396773,0.0010680124388036448,0.00012841353651651168,0.0004831011789399437
0.016666666666666666,0.0031954190798937705,-0.0033665096211394573,25.576061600863778,-0.0012916954251348195,-2.2565768869123325e-05,3.610087019321928e-05
0.02,0.003077387828486303,-0.001525443754609057,30.07375115184786,-0.003907862808968508,-0.003648259537568934,1.336895984708362e-06
0.023333333333333334,0.0005447681761403436,-0.005133842951984709,34.56048539458327,-0.00022409278287791027,-0.0023025992875628687,0.0011238876081370109
0.02666666666666667,-0.002698681237634687,-0.001211501680915742,39.06010213821902,0.003878194139068655,0.002198777359126478,0.0005221680886173154
0.03,0.0038394005732808483,-0.001418424139770284,43.56065036508136,0.002931566521096731,0.0012610291498732547,0.00011703581528334624
0.03333333333333333,0.0010182028335234225,-0.008590550110504774,48.047196512443975,-0.0041416181151254575,0.0044454276238845855,-0.0016446968611531388
0.03666666666666667,0.00127474510092569,-0.001987951264647216,52.55621764695423,-0.00013077236904876903,-0.0010598847534612963,-0.0027863721852763802
0.04,0.006277913275342129,0.007427372447441944,57.05354399888353,0.0004922623905094384,0.0014651904077544083,0.0017559124920582892
0.043333333333333335,-0.0008350415294102784,0.003318453465160652,60.89151995681308,0.0007095117861415824,-0.001253651467340066,-0.00488986372232979
0.04666666666666667,-0.0005445674455384435,0.008580566072506159,64.73676500575895,-0.0002875063872578908,0.00015871739399844404,-0.002358377042250382
0.05,0.0016620559766156995,-0.001973302348394989,68.57052188123406,-0.0013415830120677619,-0.001873911760839427,-0.002270369222615443
0.05333333333333334,0.00813999309442288,0.004743005477069899,72.40771849898233,-0.0012878738590508328,0.0009566651013285382,-0.0012645248303787548
0.05666666666666667,0.0008657418335403281,-0.005674324758719227,76.2507637368242,-0.0019039749570314997,0.00026739784580272143,0.0004613169546046806
0.06,-4.326635827077457e-05,0.0045523890413270525,80.08096949331814,0.0005621635518230759,0.0003908848167008581,-0.0017155176299177837
0.06333333333333334,-0.0051109639504342665,0.0009156370447160649,81.28394141219765,0.004059288093309615,-3.642222002771691e-05,-0.0019466492033642882
0.06666666666666667,-0.0022601283136225916,0.008637315937074086,82.38268732453713,0.0008809004399681624,-0.0031629916056708433,-0.00015009592001117417
0.07,-0.0020410405696863463,-0.0015330387486383137,83.50444777131761,-0.0036684425107307937,0.002597752760311536,0.004087187276518176
0.07333333333333333,-0.001259714063546021,-0.004583018276670157,84.61949811801988,0.0008065432567323777,0.0008140766329806594,-9.893841180782945e-05
0.07666666666666667,-0.003527824489181393,-0.003893406438637198,85.74821623108858,0.0014172933149739929,0.00011441138352407903,-0.0017037939366433296
0.08,0.002595974700279492,-0.004241460093411663,86.85352691773325,0.00022043094996622767,-0.0016780507792430444,-0.0004308608497334916
0.08333333333333334,0.001531597775126232,-0.0021113988088740767,86.68955950831891,-0.0022888932940590976,-0.0008221695174716649,0.0034647359602469775
0.08666666666666667,0.005048116894379141,-0.004589441812895103,86.48709281652488,0.000900694907398424,0.003027374782887729,0.0014498700351968758
0.09,0.003656842652909325,0.002605636830947187,86.28525210951337,-0.00011147739516396639,-0.0007106027770305959,-0.00011835631093146615
0.09333333333333334,-0.002496431198511137,0.0028868381274844606,86.0803163714349,-0.0011189709934306727,-0.0030615343154676237,0.0015941614634838188
0.09666666666666668,0.0014787611225388175,-0.0012273254516488765,85.8780048796339,-0.00280466376704242,-0.0023914528515428806,-0.001510089612806064
0.1,-0.0002626967329139582,0.0005266232376920619,85.68396911678498,0.0013399754311066731,0.0025780026552718457,-0.002649577773354561
0.10333333333333335,0.002573006027368833,-0.00043895132116209337,85.50889188037127,-0.0004928467875481551,-0.0009953688714509016,-0.0007339384438094068
0.10666666666666667,0.0011268419157643235,-0.004238584782616094,85.33957536009643,0.0006021214405329078,-0.0009349619301767418,-0.0005474277494719287
0.11,0.008007378838341574,-0.001657307264838091,85.1839515053416,0.0005093966363258434,0.0004866767414857141,-0.0008928232887819227
0.11333333333333334,0.0025743096717660875,-0.010825840493138861,85.01650671850001,0.0015063932019442478,-0.002319777999470739,0.003107334411096395
0.11666666666666667,-0.011565516547678453,0.003101509754737508,84.85545453001015,-0.00032594699996097126,0.0014570430499416403,-0.0021056044356296206
0.12,-0.002024307506964833,0.0016373600571305926,84.6873013953444,-0.0018257119237097047,0.0020478040096597095,0.0012291470394738906
0.12333333333333334,0.0018124786926725866,0.0035517220873117184,84.58238833474631,-0.000740640487447516,0.0005281726026027822,-0.0015417433421574971
0.12666666666666668,0.0020202342634188845,0.001415050581525317,84.49011975499901,0.0009594485939759254,-0.0019279253925931384,-0.00032038362586701385
0.13,-0.0005884135492092692,-0.0017866341876352238,84.40159815008403,0.0038819754366230977,-0.0006908725236990981,-0.0007856200599409933
0.13333333333333333,-0.004607992224171073,0.004300775471320451,84.30670067326031,0.002652987739238307,-0.0016490352103098783,-0.0006661666607900077
0.1366666666666667,-0.0027732150967598123,-0.00425835198122043,84.2267086945836,0.0008269751448881222,0.0016316305320032694,0.0016682317097674385
0.14,0.005655202614497036,-0.0027026069679491524,84.13217863302754,0.0009561122083646162,0.0007273281144587176,0.001201554029769287
0.14333333333333334,0.005734403824699392,-0.009727167578573373,84.13223078195762,-2.917236985791755e-05,-0.000759829138621055,-0.000478406925216719
0.14666666666666667,-0.00230959502257702,0.0037723819198684917,84.12368528366423,0.00035824871586609197,0.0039428562524036585,-0.00033505879817805214
0.15,0.003240808984744969,-0.001726318434787004,84.1397767657778,0.0008416658510189688,-0.00015858769284902942,0.0003765169991063356
0.15333333333333335,-0.0034396794246620236,0.003967040027712567,84.13482022356271,0.000375629255909107,0.0010747815840177113,-0.00035644309678387813
0.15666666666666668,0.002750224052929427,0.0016599837873108136,84.1304172519689,0.0010234166423906212,0.0008700818952038672,-0.0024553200754082196
0.16,0.001929113403891835,-0.004913019126048894,84.13128568378482,-0.003982582081948822,0.0016684461147403818,0.0016330029160222458
0.16333333333333333,0.0025839724776052747,0.0014891975854229146,84.18503062536641,-0.0006090113072466041,7.283705319133154e-05,0.0009298786723564079
0.16666666666666669,0.0014683979996682759,-0.0056533359245272185,84.20995113940862,0.0005883539191287141,-0.002572925846644646,0.0002792333618932165
0.17,4.855113649187763e-05,-0.004214849886115206,84.26549305170047,0.00018068626397633894,-0.0017643019241313856,-0.002306619415191285
0.17333333333333334,-0.00392801620736177,-0.0034165504153576024,84.31284220426006,0.0018045715154120503,-0.0016804179910454907,4.792730913046693e-05
0.17666666666666667,-0.0020384372715510904,0.006979659049765004,84.34699305086913,-0.0005500540350743356,0.0006826174737978886,0.0015217781021814904
0.18,0.006270346953580842,-0.0032336699235730798,84.39042960674702,-0.0024169110669611444,0.0024557287257109535,-0.0014736949463471508
0.18333333333333335,0.0035824535606891455,0.0019825404730036233,84.38733723525523,0.002132909550846849,-0.0009224998219643809,0.000291483255782844
0.18666666666666668,0.0067308373746580745,-0.0036898275794390793,84.37405703751259,0.0006295508393131135,-8.209490215288723e-05,-0.001161269918391264
0.19,0.003252448856057885,0.012636407450343941,84.36605708283936,-0.0002406467790545767,0.004061218803982968,0.0009759555129278901
0.19333333333333336,-0.00508241259802622,-0.003463419611588818,84.36232921687937,0.0004716975793978565,0.002337482915396762,0.0009770349429831444
0.19666666666666668,-0.0028228822351575762,-0.0033038113425654363,84.35162088777265,-0.0008083339075112431,-0.00035319033504525226,0.0016292019862774035
0.2,-0.004748008958635178,0.005917231907956596,84.34414787094481,0.004021510094820432,0.0020046075472020313,0.0019138277652464974
0.20333333333333334,0.014122933552526334,-0.0007510564137517584,84.36084112620688,-0.002407341608835525,7.230156716200506e-06,-0.001481229771191867
0.2066666666666667,-0.005850754388253494,0.002201762153470577,84.36526964196956,-0.001176433193230066,0.003731013260772963,0.0010904217575760011
0.21,0.0062556940394793495,0.00014928095584386888,84.38122277035393,-0.001669858952304413,0.0020366038784798163,0.0016188664950889712
0.21333333333333335,0.001215120562904754,0.001968500228510186,84.38483189913252,-0.0019092514760831849,-0.0017313207133206464,0.003365069424781879
0.21666666666666667,0.006272561674827059,-0.003074258927117616,84.39520475610743,0.0021979618979931894,-0.0012092407765565533,-0.00012684891970441307
0.22,-0.005994682942002711,-0.0009936363397380944,84.41973609808959,0.0017258896598085648,0.0005653772860132167,0.002134492655508037
0.22333333333333336,-0.004541635968704186,0.004529502441086012,84.44011266404547,0.0005199996135091341,0.0004558489783036796,-0.0013756316340356293
0.22666666666666668,0.007448925797427825,0.0022040964201093557,84.43336216246684,-7.937595206133044e-05,3.37303638276381e-05,-0.0014656838336233524
0.23,-0.0032404272995431517,0.0039000315477074276,84.46263490227629,-0.002426183685229688,-0.001102483102992002,-0.0011664587355728064
0.23333333333333334,-0.0027656208542416643,0.013202112101178455,84.47849632457701,0.0028625753658251753,-0.001246764081400342,0.0006467148638162661
0.2366666666666667,0.004883397146320523,-0.007686233586595535,84.49474055134588,0.0004830049916785019,-0.0014248777402175274,-0.0023278514482497053
0.24,-0.004689555969843472,0.005765732074100911,84.5001206621108,0.0011740072771380856,-0.001443649531744306,-0.0015909899799908835
0.24333333333333335,0.006002992883133319,0.0038338415546495144,84.50771550858188,-0.0012776477998051785,-0.002189999709376736,0.00046049862609873427
0.24666666666666667,-0.002467843022421671,-0.00145421419089681,84.52246758199429,0.0005726506595810201,0.003197666318509113,-0.00017140362188396727
0.25,0.001580954419351888,-0.0012168956816511556,84.54189900395747,-0.0007351398519818719,0.0017992514122339364,-0.001899471899690597
0.25333333333333335,-0.00513144148635918,-0.004306777266535754,84.55320998864936,0.0008268775123031469,2.5312001686890832e-05,-0.001582806156267348
0.2566666666666667,-0.0024435792186655904,-0.005575918654500671,84.56835476591391,0.0022744483897174186,0.001617055467242316,0.0025678453407660044
0.26,0.005401178567528912,0.0022183679984982803,84.58725422696367,0.00034459296264549696,-0.0006322923272171179,0.0002169619693789486
0.26333333333333336,0.0003608593281122505,-0.0013187933037407137,84.62510618306084,-8.475747267885213e-05,-0.00010991841124089656,0.0019947835880165573
0.26666666666666666,-0.0015995955224694088,0.0016550038934562872,84.67536836345674,-0.0006053663689127828,-0.0019969676495244022,-1.2191020689636291e-05
0.27,0.002181705166371791,0.011043353112648905,84.7298904135808,-0.0015576194877849302,-0.00046127475577796096,-0.0011035110128227226
0.2733333333333334,-0.009419863662000996,-0.00018791873582919757,84.77828404355095,-0.0005681550285066781,0.0016144107363894294,0.00024734749823401283
0.27666666666666667,-0.006856004092630056,-0.005437565983627598,84.82962201946175,-0.0006478129266769146,0.0009885621965220516,0.0006551109984768939
0.28,-0.0023394713569475593,-0.01005856833131272,84.86775283774067,-0.0005729914631695947,-0.002456953636217637,0.0007872137211010446
0.2833333333333333,-0.004186855535971237,0.005870595281738679,84.92352025003963,-0.001310149881141328,0.0027130817783201917,0.0006317635008685041
0.2866666666666667,0.006670316589584049,0.004453898730497679,84.97879634050483,0.0010300166830497733,0.0007876425349740931,0.0027254118891730183
0.29,0.002926637216874003,-0.00439625269295854,85.02547706559858,-0.0005926513284063567,-0.0012134036697104271,0.0002623459836389558
0.29333333333333333,-0.0036694365310633867,-0.007563451971394053,85.0710375789006,0.0032201398681208407,-0.0005101705121318408,0.0005155457134407899
0.2966666666666667,-0.006883077528659373,0.0030459351161350877,85.12169139039787,-0.0016659977223624375,-0.0006984824127533057,-2.8736515514147386e-05
0.3,-0.006772235541759452,0.0017225309882687707,85.17418063063104,-0.00033466600839406817,-0.0023735706073091715,0.00018869032193961183
0.30333333333333334,0.0037756011078117586,0.006974423805191501,85.21660969830398,-0.001118188192632333,0.0006353767094645067,0.0033845608799189172
0.3066666666666667,0.01143587209114832,-0.0016941332432763596,85.26876898884885,-0.001111309776174361,0.0006022242917664121,0.0005841555868010375
0.31,-0.005159091626150195,0.007849711138422264,85.3274348560424,-0.0008672729561281797,0.0017216144599255905,-0.002899358972797929
0.31333333333333335,0.009876577069912112,0.0019712747426683724,85.37217755416013,-0.0035630515095287207,-0.0029413960457588873,-0.0001393547288796066
0.3166666666666667,-0.0018227501696270003,-0.003052671688796335,85.42387828231263,-0.0004791936753233803,0.0012195046386230001,0.0032918518668282894
0.32,0.0024760750959705777,0.0003374826885233563,85.46863424723067,-0.0015605762287010496,0.0022111341520931914,0.00042019083543832483
0.32333333333333336,-0.007004865531926712,0.0019784590677460663,85.52254384305738,0.0002040984591698913,0.0002190460833004004,0.001339558176725779
0.32666666666666666,-0.004776840341594113,0.0022072888928132786,85.57615112480357,0.0014589181496450095,0.0013876953479627543,0.0002633911321217602
0.33,0.2648590773608323,0.15224210205890457,85.60636029134152,-0.0001396985667905231,-0.002062858629538726,-0.0005181422907910624
0.33333333333333337,0.25749605488801713,0.1573039555697713,85.65560520260875,0.00040321323933299307,-0.004099534455313182,-0.0029634785749982325
0.33666666666666667,0.26509321039105105,0.1441595109362645,85.71132326019078,0.0007772179797805315,-0.0030894752388730927,0.001473719942432551
0.34,0.2584541905714843,0.15930573606649895,85.7595502779846,0.0022393378528569718,-0.0049203994399268655,0.0009910152865300846
0.3433333333333334,0.2704519525898574,0.1532293140743038,85.79315016598716,0.0012707729364482916,-0.006650171210930259,-0.0008791765631561227
0.3466666666666667,0.2758097710721702,0.15216578060181615,85.82303541840278,-0.0009723068670964227,-0.0077938077523247076,0.0003576024228232507
0.35000000000000003,0.2781023611263549,0.16058038562606014,85.86087689101822,-0.0002988268508832964,-0.008062349110750183,-0.003241923015026983
0.35333333333333333,0.26821185105508333,0.16022795594927142,85.89942324036838,0.0030002642785209453,-0.009983272527763393,-0.002384190117511077
0.3566666666666667,0.28216973194019,0.16008314097386572,85.92540373869706,0.0007498628091464113,-0.013972733325645848,0.0024556919748621774
0.36,0.2699223009726304,0.1642829478208249,85.96938172197638,0.0036089028611177563,-0.010917858352900572,0.002773586272465861
0.36333333333333334,0.2704228065566745,0.16147293411176825,86.01015893103616,0.0007937214253996273,-0.013702437035518263,0.0026242528861882253
0.3666666666666667,0.27445084441796735,0.15902712237511477,86.05153085494594,0.005380639126579109,-0.016436920389473846,-0.0014125049181249749
0.37,0.2777176353372659,0.15609373351912245,86.09036931437112,0.004050685645059163,-0.021280855745439455,-0.00040321937310071473
0.37333333333333335,0.2709285341393063,0.16543419681793697,86.1289716091911,0.0034633640721198817,-0.02105147429825994,0.0002050583600343748
0.3766666666666667,0.28473477920751855,0.16590994704557804,86.18156514675822,0.007423693982929506,-0.02015046895649756,0.0013626272964871265
0.38,0.2795320163376446,0.16789841782858114,86.22293743400363,0.004099531210611084,-0.02233627364517902,-0.002453009402362556
0.38333333333333336,0.2741656839320614,0.17492637874356637,86.26224318733247,0.0035649224011125528,-0.024675939639211893,-0.0005014936772731049
0.3866666666666667,0.283052000697287,0.15700913703264413,86.31293561199058,0.00720905238685901,-0.025023929426162123,0.00013434859333884188
0.39,0.2866928992426907,0.17290382289667985,86.37047517620833,0.0063877242937162085,-0.030182407613663184,0.004039033373813994
0.39333333333333337,0.2791262024179999,0.17070733464326188,86.40448786376534,0.004294665205820155,-0.029866581864036366,-0.0015162651604898407
0.39666666666666667,0.28039307876080205,0.169894941836241,86.45821410356433,0.005901178088583741,-0.03047294716450735,0.0007011820789147501
0.4,0.2792313473734119,0.17260715222998138,86.50823984153355,0.0055992449889261334,-0.03420948394819439,-0.000989301771927689
0.4033333333333334,0.2882790824052357,0.17019950673478443,86.60544867458039,0.004765829411383041,-0.032772356329466755,0.0012966629831616166
0.4066666666666667,0.2770781316635443,0.18053710768236306,86.73510493312874,0.005883398085185049,-0.032438038664766106,-7.043999858272962e-05
0.41000000000000003,0.28213059523468076,0.17970399555812752,86.84183966347415,0.005752664620549924,-0.037375895683765946,-0.0005977986685276243
0.4133333333333334,0.27627947747945764,0.17162424273262558,86.96105555090845,0.006456457871416629,-0.03894349627179092,-0.0005146203595822249
0.4166666666666667,0.2784760261687372,0.16708065600687996,87.08308277748186,0.009956210965497389,-0.03798741434508649,-0.0006829248328883583
0.42,0.27621118905194436,0.16844344045542695,87.2002067495369,0.009805017938047644,-0.04422667255230899,0.0009609822341184812
0.42333333333333334,0.2692214439532275,0.16764631420054085,87.24658570448173,0.007246132427829186,-0.043618731109695566,0.004100797881420383
0.4266666666666667,0.2792137006051202,0.1709311810182898,87.29127690620898,0.008695862124431028,-0.04513792807441924,-0.002147110459860021
0.43,0.274428810455782,0.1767685898349121,87.33201997902638,0.00582711944360113,-0.04383962670271274,-0.0022242289784093717
0.43333333333333335,0.26749173266800486,0.17212979109826418,87.36992910305206,0.010092576639324915,-0.046051852168389605,0.0008522995491387997
0.4366666666666667,0.26672862043371703,0.17463677060344868,87.41339566191807,0.004119823481058762,-0.05079786078507695,0.0006309892192862645
0.44,0.26520389349139406,0.1761579373007543,87.43882372433886,0.013438296704865254,-0.05047794457138797,0.002418570312614237
0.44333333333333336,0.26060732532664926,0.1766538972790839,87.48877364766864,0.009853974879456159,-0.05552139262090671,-0.0019911896060464565
0.4466666666666667,0.26688132239174467,0.17398079887238038,87.54912982820218,0.013003702617275445,-0.055546648643928005,-0.002591955424359289
0.45,0.25961442568153503,0.17116744820272484,87.61637176463594,0.014014722329436558,-0.053224415483861545,0.0028666411848028827
0.45333333333333337,0.2548582654928298,0.15704062144986622,87.6654452208718,0.010614223620117085,-0.05813520562103168,0.000714369977342697
0.4566666666666667,0.25360248531439566,0.1704166821161503,87.724420581829,0.011275131666979424,-0.059800072631333946,-0.0017603197175444071
0.46,0.24994094564530897,0.17131872985623617,87.78497499360309,0.01707643873644221,-0.061503160362376345,-0.0008854988017279524
0.4633333333333334,0.24534299902765397,0.16659248149296246,87.81779147162638,0.0101017586198928,-0.06086355931732346,-0.0015779911724086268
0.4666666666666667,0.2490198864196813,0.16504611289566762,87.86265510817228,0.014145886580006078,-0.0648227452737354,0.002565282124777184
0.47000000000000003,0.24209701243239642,0.15604559117499672,87.89684644732574,0.0107227525187793,-0.0675756911706649,-0.002243895725211873
0.4733333333333334,0.236696351389784,0.1676812102334016,87.92014574329917,0.015270697636525858,-0.06914538423988109,-0.0014923197693891502
0.4766666666666667,0.2302857235447756,0.16650020248865402,87.95853601941042,0.014705566994679332,-0.06579974514196708,-0.003040062994713265
0.48,0.22829718730482776,0.1679544478703217,87.99867605232875,0.016605653718517847,-0.07261476007803673,0.0017751706704091867
0.48333333333333334,0.22451858149999154,0.1560016146177541,87.98845438285659,0.014088278615597707,-0.07430966900438259,0.0020140813140768843
0.4866666666666667,0.21131959316628351,0.15082642160274007,87.9678167479723,0.013511902417252074,-0.07320452854515533,-0.0009083392078174091
0.49,0.20391756577067682,0.15555243295763357,87.94456157856764,0.01546134414778215,-0.07673485077768034,-0.0007222647336853974
0.49333333333333335,0.20098162885836077,0.15525541373388596,87.90675587954193,0.017749774520068883,-0.08019014196533374,0.0010710300701010514
0.4966666666666667,0.1964436090644047,0.15081759030725578,87.88348488190954,0.016912156190685684,-0.08007495918674985,-0.0003705556335865149
0.5,0.18521966103532336,0.1552732888438673,87.84492869176324,0.015158254152184983,-0.08386562327028815,0.001958790453201143
0.5033333333333334,0.17236089995293655,0.14310487242738398,87.92588544785528,0.015067951340711538,-0.0808158853827783,-4.120908403906243e-06
0.5066666666666667,0.17731345564912485,0.15290760065090395,87.98877744339971,0.014523659095858947,-0.08252230148582754,-0.004118598863938313
0.51,0.17611178035992028,0.14871584139682736,88.06429985988608,0.018207318788751346,-0.0862843013663443,-0.0017851584988817228
0.5133333333333334,0.16638636835715964,0.14509803126251797,88.15238507100375,0.015978559281690313,-0.08571882149845181,-0.0017484329323596874
0.5166666666666667,0.1564262515156706,0.13279440145007704,88.23868421403888,0.017236698751671137,-0.090204288802299,0.0018494106082140136
0.52,0.15188546334311184,0.1281298675482008,88.31332383255284,0.016149228102891912,-0.090746989053514,-8.855456977261432e-05
0.5233333333333333,0.14791297592973637,0.1287434382835997,88.36496779147828,0.021459210214696604,-0.09592116350640108,-0.0031186613664891285
0.5266666666666667,0.14078608138205118,0.13435590159917546,88.44170702103888,0.019883525784837475,-0.09545901275833028,-0.0008278044924718525
0.53,0.11680031641762824,0.12307569639750127,88.51842168885749,0.01989960788146756,-0.09679018359023736,0.00015072975992620153
0.5333333333333333,0.11543307596647125,0.1311639737083592,88.57596968777648,0.019798019419971266,-0.09719884866865916,0.0016373528063394617
0.5366666666666667,0.1010957918838662,0.1227333962641317,88.64389767397603,0.020604010931552483,-0.09700833618824646,-0.001362624154574173
0.54,0.09525917927263901,0.11278217905226803,88.71885835014469,0.02058021735096023,-0.09801675678840276,0.0019279790442853905
0.5433333333333333,0.08951317884218189,0.12069384083083695,88.79509847138213,0.020048706127720282,-0.10160044592329392,0.0014724982477164973
0.5466666666666667,0.08264127866451323,0.11832633371053974,88.86873951458318,0.020241714641705703,-0.10398086601732538,-0.002656795782546692
0.55,0.07234683246454006,0.11176257910395011,88.95479497437482,0.021086709689131365,-0.10347912430840712,0.001123468304387655
0.5533333333333333,0.06160924183419535,0.10152907354278,89.03888229999758,0.022524371166354237,-0.10272821357917135,0.0019887023688857446
0.5566666666666668,0.053214908432306605,0.09381781462992123,89.11999036010502,0.018858600046979354,-0.10681979649335006,-0.0016823635527483886
0.56,0.03519857790832637,0.09430650422489306,89.20411550904441,0.021829372804081988,-0.10840878321165416,0.0023222932977882056
0.5633333333333334,0.03657051842713491,0.09266954002884276,89.26617846167845,0.023613226599669926,-0.10433865911769505,-0.00043529557877409434
0.5666666666666667,0.022592084525883252,0.07526179637338443,89.34726816568045,0.022297249171490775,-0.11000086658648756,-0.0020258649877425705
0.5700000000000001,-0.003774744782830587,0.08167277890437392,89.40730675673694,0.021170886194520053,-0.11289420383871353,-0.0024694034907114925
0.5733333333333334,-0.007549121865649901,0.0791016507272054,89.47010231423275,0.0254402930973718,-0.11341054020486159,0.0014393007768154164
0.5766666666666667,-0.01789652837321464,0.07806696245747258,89.54611971291348,0.021140939500532627,-0.11301683629253416,0.0037054263867619475
0.58,-0.02848833766723999,0.07795690067468419,89.59608602890458,0.02410385161173223,-0.11656386712711235,0.000516227080770257
0.5833333333333334,-0.04060919674445238,0.0685825949898257,89.67024905017814,0.02182043909050587,-0.11767209448010722,-0.0011048698037695581
0.5866666666666667,-0.05742106976321101,0.06514304015653587,89.71333630472279,0.021489735870279532,-0.1159260313169281,-0.0018666030048561733
0.59,-0.06924652896352788,0.04273132542860121,89.77187577376584,0.022950662777346677,-0.11732239052117058,-0.0011141789292757047
0.5933333333333334,-0.08899841710252296,0.04374649354333952,89.82692199110325,0.02330822933673804,-0.1185348783482622,-0.00327995143947504
0.5966666666666667,-0.09001690676638281,0.05188569548958104,89.87643461029181,0.0221713168189714,-0.11934110676634463,-0.0005077690739551499
0.6,-0.09866736222411601,0.04816826009607471,89.9250435188305,0.025535516576042683,-0.12239934163673856,-0.0043446084099539005
0.6033333333333334,-0.12257585129727035,0.03515725265794744,89.98837459293912,0.022390301159547984,-0.12030201656546607,-0.001059607525220966
0.6066666666666667,-0.13231415063396448,0.034295357393041084,90.03200785610306,0.026590122266534708,-0.12077998334272279,0.0019586725001401943
0.61,-0.1458255882833944,0.025601201444707764,90.06976860752994,0.023958866899662815,-0.12437480470835083,-0.001423649530721602
0.6133333333333334,-0.16575581019035449,0.013691093511383971,90.12233601329365,0.023018656145420112,-0.12293591880365638,0.0005296987480769906
0.6166666666666667,-0.18099644363579007,0.007289498512650675,90.17350626913483,0.02415684596101011,-0.12165377503320296,-0.0034738897767164606
0.62,-0.1846577380365001,0.00666906830202043,90.21758760061371,0.023888612621702762,-0.12688619311425892,-0.00022480154998491693
0.6233333333333334,-0.20658193463920416,0.004364303504330592,90.28222922935412,0.023476242237185693,-0.12522523298195007,-0.00012927888938579285
0.6266666666666667,-0.22044178382316612,-0.0053398974882398476,90.34770599492437,0.025866702529789464,-0.1269417027947999,0.0032653160200795542
0.63,-0.2330591116658081,-0.004572569297573839,90.41154563890372,0.02310593635903119,-0.12839022190180271,-0.0008233562703881882
0.6333333333333334,-0.24891116451794065,-0.021072997346694558,90.4661024942689,0.02735147307474889,-0.12910306674245992,-0.0032760818459781193
0.6366666666666667,-0.2811236090386805,-0.011875156389866451,90.52839309849088,0.027282668023926412,-0.12884109051489476,0.001446542731479038
0.64,-0.2850650609013907,-0.025382357056235438,90.59189022224436,0.022355244217253142,-0.13021915441430948,0.002527919122741769
0.6433333333333334,-0.29734857033895445,-0.037409451352270584,90.66021611479498,0.02436633554442256,-0.12979429314942661,0.0017071528476804967
0.6466666666666667,-0.3035066503521368,-0.03944910908686856,90.75753171036612,0.0280669431593034,-0.13086530902642066,0.0030463699290791194
0.65,-0.3404690924038063,-0.05344263626900029,90.86042342218192,0.025979198849968233,-0.1306831396628605,0.00191839886307307
0.6533333333333333,-0.34571977288072875,-0.057419887608898726,90.92671690068241,0.027119443482114133,-0.12917141315211916,-0.0015525857795388278
0.6566666666666667,-0.3663439726519825,-0.0573749770721663,91.02843259110654,0.025975262339110173,-0.13136836052662212,-0.0026962200671568227
0.66,-0.38356550004089257,-0.06575020182538849,91.10829784657798,0.02536179948038063,-0.1328758105001377,-0.0013056259952897433
0.6633333333333333,-0.40516625035461096,-0.07382573843670619,91.20968321345215,0.02489955578365031,-0.13108207984746437,-0.0013589059762688649
0.6666666666666667,-0.4089166909354153,-0.08710969460720175,91.301598551883,0.025369067911311462,-0.1317241104873337,-0.0034730557295962286
0.67,-0.42523710135080844,-0.08813781429506651,91.39877280366288,0.023186456248108875,-0.1289971610608237,-0.0011292346029153201
0.6733333333333333,-0.4593361808377061,-0.09592356790512817,91.49488713467716,0.02442607568958046,-0.13026359015309344,0.00045367399133438115
0.6766666666666667,-0.4710180193566388,-0.11192633898441301,91.58500057825943,0.02612474849537544,-0.13575623124057068,0.0008721485738482136
0.68,-0.48655628485297403,-0.11066315028573565,91.69189808096041,0.025062093596203466,-0.13201954144080733,-0.0007854271767363596
0.6833333333333333,-0.5097048813463408,-0.11931478169882058,91.79062483693141,0.02202884247837645,-0.1291576028435954,-9.593771883929141e-05
0.6866666666666668,-0.5198993610327916,-0.1289307670892398,91.90194523098167,0.025275017113245927,-0.13049179412845682,-0.0015058388163827201
0.6900000000000001,-0.5450544414361997,-0.1404775805819925,92.0117367710136,0.025596677688894575,-0.13131394116292394,0.0016480346839564018
0.6933333333333334,-0.567690574016785,-0.12927102919026645,92.13582343108872,0.02610569403176765,-0.13253698849917564,0.00019366542591371295
0.6966666666666667,-0.5820598277897845,-0.14575053540438374,92.25392842821918,0.023922793326375504,-0.13078774971948617,-0.0007048622699825936
0.7000000000000001,-0.5924780164110396,-0.15924283997355584,92.3546549789214,0.022666324117789023,-0.13159134727337915,-0.001063917264426091
0.7033333333333334,-0.6143997286125102,-0.17841566305779843,92.48471500890514,0.02584730139698801,-0.13099762236045903,-0.001618381421929078
0.7066666666666667,-0.6309209711019012,-0.17523606904659128,92.59857102409117,0.02575862408384511,-0.12882351922518906,-0.001417227168194641
0.71,-0.6613848186667548,-0.17770032860829918,92.72603966919917,0.022981856541654397,-0.12690439100334353,-0.00010327417881942138
0.7133333333333334,-0.6772573813781237,-0.18109867790205667,92.84959277363312,0.024667742068956743,-0.1285695918272104,-0.0029955056155346947
0.7166666666666667,-0.6910593869440179,-0.19139914398899818,92.9686862784933,0.025532913265841048,-0.12653517456954044,0.0033130377447494063
0.72,-0.7045874823167911,-0.19928717947875207,93.10223675305792,0.021276718969704903,-0.12886069214626195,-0.0021868517365508035
0.7233333333333334,-0.725277251811156,-0.21005038927906622,93.22927360844879,0.02247760459065785,-0.125435056242613,-0.0013137717458383323
0.7266666666666667,-0.7496452555984436,-0.22104704331418662,93.36154942504861,0.023841425394084324,-0.12410541969431986,0.0005099601926831357
0.73,-0.7646062781931761,-0.23357731149282607,93.4941648232958,0.023291442009759574,-0.1238990979287305,-0.0003793735788455065
0.7333333333333334,-0.7877817986229166,-0.23414874747896888,93.62931772572917,0.020936414187717148,-0.11981819415115828,0.0022737089896412116
0.7366666666666667,-0.7964979886781748,-0.2407637771953567,93.75388334548961,0.024578544718131447,-0.11802199635251685,-0.0005346178086838716
0.74,-0.826887852575859,-0.24478145196909096,93.88989972119181,0.02094394247177306,-0.11972767804768998,-0.002016919224352062
0.7433333333333334,-0.8404281004202298,-0.2517937597327103,94.03228195051055,0.019237954784417702,-0.11868553296666458,0.002316837875359846
0.7466666666666667,-0.8631571119231509,-0.2678277999599232,94.1685482372666,0.025211554671470005,-0.11674098357088805,-0.001618705887120648
0.75,-0.8764198640066732,-0.26600378065928193,94.29382631938982,0.02059858941822782,-0.11441841059536342,0.0016365702273771542
0.7533333333333334,-0.8930685064120129,-0.28128069889043533,94.44112150678176,0.021357556210992116,-0.11354459827709959,0.0007357038202614935
0.7566666666666667,-0.913542019353999,-0.28335122833199056,94.57104548561021,0.01857881893233117,-0.1111039925003037,-0.00041531401435525946
0.76,-0.9301908800502795,-0.3002150743735743,94.7204379912221,0.019625578264944432,-0.11207276169017086,-0.00019055480952639438
0.7633333333333334,-0.9498087725280859,-0.30327412479020743,94.86332459363332,0.019859008003659005,-0.11466585754013293,-6.0749408847275294e-05
0.7666666666666667,-0.9747787739850037,-0.3112201533278251,94.99176521182315,0.0217692498612686,-0.1076894980727502,-0.003102909163024054
0.77,-0.9800064841213006,-0.31499560637733276,95.14449158996955,0.016619449736311295,-0.10559187144588121,0.00043225042975009767
0.7733333333333334,-1.0082217451570727,-0.3294924397272702,95.27986550300021,0.020096411212028258,-0.10849575645550452,-0.0004743762630539098
0.7766666666666667,-1.0258850817999456,-0.32035219138705384,95.41912339115883,0.01978593655281857,-0.10584578480680258,0.001487274271354846
0.78,-1.0451882176738265,-0.34073053289002314,95.55097991720706,0.01962701927276178,-0.10166382731724952,0.00011611077006984757
0.7833333333333334,-1.0593824361598423,-0.35073495129861143,95.69509703469875,0.016513235773944868,-0.10133935983034097,-0.0013227535077112065
0.7866666666666667,-1.0776848053326025,-0.3525968690116069,95.82164290558235,0.018652796086037586,-0.09972583391435404,0.0005705092871486138
0.79,-1.0985035095799778,-0.35126846886088786,95.94715476839745,0.018358551169417786,-0.101035614005275,-1.2829771986275483e-05
0.7933333333333333,-1.1107182645279183,-0.3698342747280409,96.07930237505428,0.015038173563539746,-0.09712438007463733,-0.00024035676527306424
0.7966666666666667,-1.1326123370048735,-0.3732045338846955,96.21513400181792,0.016314283475179596,-0.0937144906437031,0.0014609795676794072
0.8,-1.1352157312980116,-0.38344140203348376,96.34968049581292,0.011389417944602357,-0.09209181119509925,0.003768671719429054
0.8033333333333333,-1.1578042826528543,-0.39284164942397537,96.47163398028786,0.017519637424917946,-0.09111080026432163,0.00020338231418325003
0.8066666666666668,-1.167044719770435,-0.3868986537880719,96.5793466417445,0.014284790288673395,-0.08482393204726346,0.0003795176425340537
0.81,-1.1840159010721836,-0.4023555700281736,96.69420327878578,0.013446755347393475,-0.08372822174004581,-0.00485711171351399
0.8133333333333334,-1.1954460985563324,-0.40538745108775387,96.80786003713293,0.01270600215655115,-0.08353256226477385,0.0014329328294715004
0.8166666666666668,-1.2060474831014372,-0.4250939409744089,96.9269292576276,0.013696201637554074,-0.08133868650273338,-6.334230637757242e-05
0.8200000000000001,-1.2317452146218888,-0.40368943678803015,97.0315754977346,0.011434629782073468,-0.07882907178833727,0.0017760658998792014
0.8233333333333334,-1.2336506474711686,-0.42272002646425516,97.14220287776634,0.011403228372419354,-0.07536007995869767,-0.00019165623496387267
0.8266666666666668,-1.2553186838997228,-0.4265705140881192,97.23469438298089,0.012394417796868649,-0.07229480235193506,0.0011813104901153473
0.8300000000000001,-1.279744470101414,-0.42654868001844437,97.32757330261038,0.012799641918021515,-0.07410901680158727,-6.688858445295713e-05
0.8333333333333334,-1.278011413723527,-0.4456295752737531,97.43212099279674,0.011768824287000363,-0.06954582214447036,-3.472327346575948e-05
0.8366666666666667,-1.2939574908495173,-0.4423648507225528,97.50998194058043,0.011643259724614457,-0.06421480292596424,-0.001711594564543895
0.84,-1.3054005916693094,-0.4451906133159076,97.62322045878084,0.010689244673578673,-0.06483845965097888,0.001143185393617127
0.8433333333333334,-1.3204628081279828,-0.4482631903785403,97.70695191285796,0.01191562288478498,-0.058161684533046765,-0.00047783487832231284
0.8466666666666667,-1.3278694062478125,-0.447592529159318,97.79084893274951,0.01044973316097228,-0.061505783516324124,-0.0008391150965228595
0.85,-1.334581134796023,-0.46216329692003,97.86691969963186,0.007917506995313298,-0.057366325382380116,0.001430812302337959
0.8533333333333334,-1.3586175712915392,-0.4667948398571883,97.95026192377162,0.010623431433963066,-0.055128021454356434,0.00039790266472569473
0.8566666666666667,-1.3630712086567291,-0.4701367054651225,98.02975840886931,0.008952608290616382,-0.050902052931576666,-0.0028180509581129556
0.86,-1.3625031216720525,-0.4743468481531774,98.10981997133189,0.00529986059032363,-0.048493617076988765,7.967200126889244e-05
0.8633333333333334,-1.3596428353317875,-0.45292849529511225,98.19268386204752,0.006172968438316029,-0.044101226290176855,0.0010649378894949503
0.8666666666666667,-1.3883917588429262,-0.4646966726286273,98.26088196008874,0.0040200625770255086,-0.043593048472092374,0.000497041500343298
0.87,-1.4046287557564423,-0.47781964475675676,98.3299408838518,0.006338071734243465,-0.03958923477920855,-0.0005065210396865847
0.8733333333333334,-1.4066732980791414,-0.48944579709388775,98.3969002465287,0.00608402021250942,-0.037144302285385566,0.002224376042241129
0.8766666666666667,-1.3948823198871485,-0.48448311003693817,98.47968969461216,0.007720698585729265,-0.0352498893477827,0.002429138151835313
0.88,-1.4203435794460273,-0.4833108905011965,98.54764059244687,0.004882277642547075,-0.028466830212963864,-0.0009659232842137301
0.8833333333333334,-1.4042962741132305,-0.49491701862592213,98.62250043126238,0.0016542095947461577,-0.03064407406640075,-0.002478751501829355
0.8866666666666667,-1.424232317648034,-0.4920961036723974,98.69593912489626,0.004180461831135291,-0.0252172770352138,-0.0018167509803154863
0.89,-1.4269191696428603,-0.4881399375204241,98.76825377301356,0.0024818665114087804,-0.024607088245247773,-0.00018882228575590226
0.8933333333333334,-1.4263697001261735,-0.4861785495069583,98.84762371803241,0.0017826303036243424,-0.021464046923680483,-0.00019782016772025514
0.8966666666666667,-1.431102958359978,-0.48762647579402363,98.92015477019045,0.0033587495742052635,-0.01856515848222061,-0.001962034150908111
0.9,-1.4266730575902777,-0.48705990735048493,98.99281515699587,0.0006748268532461822,-0.016408665265082986,-0.003529626060516415
0.9033333333333334,-1.4405693442403442,-0.4997960710760001,99.06030253160995,-0.0005889620457411298,-0.011758733946804621,-0.0019263426888784289
0.9066666666666667,-1.4469616900269766,-0.48269675243567145,99.13927719282871,-0.000605508575059885,-0.00887771099051082,-0.00011028468133560847
0.91,-1.4330226749971577,-0.48039060412400375,99.21407738588621,-0.0024055459383421937,-0.007715639877641631,-0.001377243080514165
0.9133333333333334,-1.428345083849605,-0.4743353064015533,99.30476224371873,-0.0010559548577174958,-0.004518069515300947,-0.002808011825943007
0.9166666666666667,-1.4281990967539142,-0.47481696050098227,99.37186774565411,-0.004911307270277132,-0.003665099499188717,0.0006387986533139275
0.92,-1.4316407455496034,-0.47480904645198857,99.45462359227584,-0.005116275491340595,5.434964429776399e-07,0.0008056676341382996
0.9233333333333333,-1.433723970672942,-0.4707459693464972,99.53144744956674,-0.002075697153167565,0.006403383702267845,0.0027819378778251407
0.9266666666666667,-1.4270106964336566,-0.4776828818185005,99.59825352511936,-0.0038629652080581557,0.005450701813967183,0.0009218071045805141
0.93,-1.4181363538196947,-0.4661557048312889,99.66362262581052,-0.00476704591888351,0.011761065818619305,0.001466011228701754
0.9333333333333333,-1.425386185745935,-0.4647793354659209,99.73533426010233,-0.00785375613027833,0.01262602206313221,0.0023218158729867403
0.9366666666666668,-1.4120773873039474,-0.4593579555122534,99.80711389293207,-0.006431152508748257,0.014197655264294153,-0.0030255751801700364
0.9400000000000001,-1.4061219820696285,-0.4574857917660409,99.87578094785245,-0.006910271266003494,0.017637581151867084,-0.002081955371619865
0.9433333333333334,-1.4064908205106925,-0.4482050647592916,99.94373772207206,-0.005591738864781714,0.020174672043345342,-0.0009603642470053252
0.9466666666666668,-1.3997775435636037,-0.4401211976177534,100.00871085091717,-0.00571605171821675,0.022735264861930622,-0.0005201895334996403
0.9500000000000001,-1.3921741001048724,-0.43732318684537624,100.0594047347803,-0.008003144965876162,0.028453477694562284,-0.0010164275844596873
0.9533333333333334,-1.3822111563385076,-0.42796032854518457,100.13117436197022,-0.008433107639963206,0.02519089183652405,0.0010756154574658847
0.9566666666666668,-1.3743692557376563,-0.4326421417310827,100.191039968746,-0.007365982395299766,0.031238156722547386,0.000881222503108381
0.96,-1.3650078152925995,-0.42824826598251187,100.24531602596466,-0.008989179508959454,0.03505456456017358,0.0012259659698100691
0.9633333333333334,-1.3489742218671783,-0.41585673502495407,100.30418608836113,-0.009266922461952124,0.03725930050670042,0.002454301471765052
0.9666666666666667,-1.340118515392075,-0.4079313807613846,100.35301757568921,-0.012401344353005663,0.03722297669325405,-0.00014478904833707348
0.97,-1.3224779035813508,-0.4040265662083354,100.38740005254725,-0.012635307046811286,0.038597019936999724,-0.0028039406902977755
0.9733333333333334,-1.3211164444540522,-0.3951547751951545,100.43620045142573,-0.011416964551886307,0.03834817655647978,-0.0001589581665994399
0.9766666666666667,-1.2966537850044555,-0.391622948444043,100.48787038099222,-0.010286145954908033,0.04345868741114643,0.0004612745344744303
0.98,-1.289344332893904,-0.387895878015697,100.52779507723288,-0.012537746984547609,0.04405196114833385,-0.0003772302316280848
0.9833333333333334,-1.2761326791883112,-0.37307346914287554,100.56487208149512,-0.010227744243705804,0.045231278952825374,0.0007346464258400581
0.9866666666666667,-1.2658925007328563,-0.37421313682500684,100.58408433957773,-0.01227618169687688,0.05102100206727499,0.0003542886139878679
0.99,-1.2453569964404374,-0.36387928088544896,100.61617426841968,-0.012279007771516989,0.05006487911885273,-0.0007027110747861566
0.9933333333333334,-1.2270356557978583,-0.3480824875424307,100.63492349317312,-0.016309299194111865,0.05572626625563883,0.0019205327976094706
0.9966666666666667,-1.2263042335030618,-0.3496491689621996,100.67555184318233,-0.011590822292440075,0.05556104192689034,-0.001302020864136492
1.0,-1.1972594249538966,-0.33089480386294445,100.69227812332615,-0.016406688903668035,0.05562248855838729,-0.002157192522865183
1.0033333333333334,-1.1936088999076406,-0.32644240722520884,100.7163573387315,-0.016830915880472596,0.058598409500914155,-0.0018516316297281388
1.0066666666666668,-1.1667738183974485,-0.3248411760730346,100.7255262554001,-0.013622166026688916,0.057151628730411005,-0.0003597461099345708
1.01,-1.1472232593950789,-0.3050702226237742,100.74084019677265,-0.011973069265214848,0.05936785682363172,0.0007748014275994553
1.0133333333333334,-1.1354555113274298,-0.2942576941434829,100.75600710221485,-0.012498781094564416,0.062336799683455284,0.004957567447745162
1.0166666666666668,-1.1109085019230427,-0.28740032382430214,100.77436189522305,-0.013886569579865114,0.060034991124484446,0.00016140986147684776
1.02,-1.093247542892227,-0.2719175352039221,100.79352193284478,-0.01669888742183476,0.06486015888964015,-0.0033811314622589623
1.0233333333333334,-1.073042234140514,-0.26778169313832945,100.8042588542084,-0.015022468500034369,0.06586083585550505,0.000535607906016376
1.0266666666666668,-1.046912134958426,-0.26511689023649704,100.82883835633224,-0.01582920029485242,0.06782513271662378,0.0029320611910814277
1.03,-1.0315384493132767,-0.25148726115728565,100.83286391046177,-0.015536484387448037,0.06514041186580442,0.0029019597983381165
1.0333333333333334,-0.9998485053572335,-0.23348866651543387,100.84718089391141,-0.0165945489790431,0.06662588137264745,0.001101299197127357
1.0366666666666666,-0.9910762292496224,-0.22720927555917378,100.85583056006406,-0.014738349966104817,0.06616016496418853,0.0002134550400768493
1.04,-0.9745795138654829,-0.21127143307784124,100.88253309179166,-0.01385729095361513,0.06931785379504955,0.0008062120883971452
1.0433333333333334,-0.9479153689952042,-0.20469302831794917,100.89438375970047,-0.0134044270042591,0.06712429439757439,-0.00017866013990146896
1.0466666666666666,-0.9195175192677736,-0.17280229993462765,100.9245964161598,-0.011830340583558427,0.06909371409640011,-0.001213914523430044
1.05,-0.9060459327103696,-0.18438617125673382,100.94223572856158,-0.014335356773675619,0.07014975116167198,0.0004404095216562171
1.0533333333333335,-0.8862028456652321,-0.16331029278488193,100.97263236988779,-0.016939349625406892,0.06947760955768471,-8.077962244105668e-05
1.0566666666666666,-0.8644714467024909,-0.15115994490267848,100.99065026937186,-0.017043011266006644,0.07260945449672508,0.00018386819500816273
1.06,-0.8387248902117793,-0.14495734348006012,101.00943521399104,-0.017451174447947283,0.065606324849942,0.0009320307054856487
1.0633333333333335,-0.8034469163384317,-0.13528307778460164,101.04564514983832,-0.0139480489494525,0.06933263395460126,0.00027268460308012347
1.0666666666666667,-0.7916587878087287,-0.11882877089199315,101.08027527425814,-0.01925579895565186,0.07033267203281841,0.0031472873526931172
1.07,-0.7590989338013898,-0.10697617881953701,101.11190101080851,-0.017547359071322845,0.06938888300215457,0.0020143112665513743
1.0733333333333335,-0.751144063109216,-0.09040947433331396,101.1630047175589,-0.01620721140153781,0.06460122208714215,-0.0009063870719201232
1.0766666666666667,-0.7212896838532846,-0.08468814848029953,101.1786110490033,-0.01766602318506414,0.06628499821094105,0.0005323967318700276
1.08,-0.7062759359528026,-0.06579161440250661,101.22498923642947,-0.014021159374359517,0.06778331453443374,0.00045427626193564834
1.0833333333333335,-0.6842339014090616,-0.06435423561815229,101.27089192933828,-0.016476162117917855,0.06799331933493444,-0.0006598576971737777
1.0866666666666667,-0.6525944554401467,-0.05208045861993833,101.30449311865577,-0.016547837343199735,0.06594903815492827,-3.927541732754138e-05
1.09,-0.632879174618015,-0.033281289113678995,101.35259250390392,-0.016264018979557687,0.06278536205652842,0.0009896583332271685
1.0933333333333335,-0.6071909403022111,-0.02120389501727573,101.38636826252889,-0.016491801032478322,0.061093395607923845,0.0005705978706810504
1.0966666666666667,-0.5972981585770303,-0.012176559651393876,101.42818854051058,-0.014269738415058892,0.06282321876251026,0.0003441682885745353
1.1,-0.5684240282209356,-0.004185119327129366,101.47233697384394,-0.014415567416257621,0.0630883367870486,0.0011268575801265948
1.1033333333333335,-0.5489206208053076,0.0017330875488130197,101.50256957404152,-0.013260228210933341,0.06065003080673695,0.002963530807812362
1.1066666666666667,-0.5266648930340709,0.023004569131649593,101.53013538751657,-0.012495532508155782,0.05828057057613209,0.0022252355132685456
1.11,-0.4999771904625845,0.025655099843791978,101.57820339216933,-0.014091309510681728,0.055941013237613066,0.0006707767643318024
1.1133333333333335,-0.4813733127058528,0.03691431649190003,101.61251644405267,-0.015173241077133368,0.05394839027138531,-0.0015470202231850818
1.1166666666666667,-0.46177323041915236,0.05740999082299547,101.64224761434853,-0.013816439898012768,0.0553455782511887,-9.457014019412227e-07
1.12,-0.43984180607377793,0.058390861982938816,101.67602668851004,-0.008585960324221107,0.05543726482073885,0.0011718006608132984
1.1233333333333333,-0.4242100373136839,0.07641026731683086,101.70106302781986,-0.00838809719609132,0.04959534024773607,-0.0005315781647475901
1.1266666666666667,-0.4111679752204523,0.0650905106977136,101.72936359094172,-0.012455795330222914,0.049055254940737175,-0.0003161111533439348
1.1300000000000001,-0.39094718774132026,0.08279078618290633,101.75623963305692,-0.010483763409084364,0.04991577884979948,0.0029369521540222976
1.1333333333333333,-0.366731789389008,0.09356988899982659,101.79254225335762,-0.010901122420794928,0.04699791000087704,-0.00018491827542509992
1.1366666666666667,-0.34831439239010864,0.10757300224841804,101.82034660952989,-0.011884030522507376,0.041317568480701936,-0.0008673510178147794
1.1400000000000001,-0.3338738230398595,0.10513940738878946,101.84646717023718,-0.007967364147667872,0.042189008969664384,0.0008996039784486499
1.1433333333333333,-0.32174639457462306,0.11358797943338514,101.86952312518365,-0.010386611787891345,0.04191251173729219,0.0011271135140786732
1.1466666666666667,-0.30968897445460863,0.12265023858435947,101.89413284504766,-0.007163588696197777,0.039086574348489056,-0.00045918273038349455
1.1500000000000001,-0.28010250183707924,0.11519282366706123,101.93270231928808,-0.006887246859095246,0.032312395945495245,0.0016835879560385748
1.1533333333333333,-0.273081184604105,0.1398098026854872,101.94510741646963,-0.00616549594143904,0.031676548542377995,-0.0007194594397290096
1.1566666666666667,-0.2592283626380599,0.14524364513192856,101.9709811129117,-0.007585618036090123,0.032898309035435516,0.00038356317947608185
1.16,-0.24762599675830207,0.14216943588841335,101.9954433461709,-0.005904454442751241,0.026523226904497564,0.0007578954555889471
1.1633333333333333,-0.24206809829181047,0.15011811517609144,102.01832184145127,-0.007775356371937515,0.024920871253028373,-0.001416493356988795
1.1666666666666667,-0.2334940563222673,0.15423212344613216,102.04585589398094,-0.0027241426143364616,0.02501199671715714,-0.0019385273947310736
1.17,-0.22731730516886087,0.16137502318270133,102.07743127850975,-0.006685780661380991,0.02359791639489078,-0.0002216488578843109
1.1733333333333333,-0.21990174775407886,0.16116794277067342,102.092612383628,-0.003912146706242813,0.020720953860751474,0.0002752827747560412
1.1766666666666667,-0.20963242254352335,0.16827669916542087,102.11706664274828,-0.006779341824250546,0.014858802112856164,-0.00312480267715858
1.18,-0.19992146783162873,0.16449973824795278,102.14524167892077,-0.004816141410958411,0.010475424384501133,-0.0004319181127412609
1.1833333333333333,-0.19161649521507804,0.17643649155074517,102.18494392373036,-0.0009304752961564588,0.010040939806309268,-0.0018198789166453376
1.1866666666666668,-0.18499545560933645,0.16534273544885644,102.20666897229239,-1.369263107998302e-05,0.011223972872628541,-0.0009116068842930126
1.19,-0.18290080327251526,0.16154129348000298,102.23210861959762,-0.0012626454567499536,0.005945791764357214,0.0028117711359005385
1.1933333333333334,-0.18640315279562966,0.1623449812203026,102.2629472460423,-0.0037580744153827023,0.0020678138561602767,-0.000550823245288725
1.1966666666666668,-0.18086134494045866,0.1638343896120818,102.29154611930441,-0.0027020236989873407,-0.003075148306340753,0.002952106223212898
1.2,-0.17821994301744984,0.16808905543533834,102.31273022599659,0.0008010560575980678,-0.0017276202547732889,-0.0007083790511075511
1.2033333333333334,-0.18075689997557803,0.16844020497706033,102.3448770855383,-9.174262979570883e-05,-0.008042883606687553,0.0009692419583689142
1.2066666666666668,-0.17064464443737837,0.17530787758127367,102.3649201478861,0.004189361989109188,-0.006614385860303287,9.967741701579257e-06
1.21,-0.17933148214609756,0.16903570038770202,102.4066550913548,-0.00044052040648305275,-0.008403271496266178,-0.0009825564706809132
1.2133333333333334,-0.18185469895404288,0.16411376503507819,102.43095667057811,0.0024091261794615803,-0.01404864971039829,-0.002384139562240359
1.2166666666666668,-0.18842719318725756,0.16040463710135047,102.46136563697726,0.0028475214917881874,-0.015546382173887619,0.0023005160634043476
1.22,-0.1818141642562858,0.17301882531706295,102.49511454233378,0.0034652976334616503,-0.017072490063500655,-0.0004845116494146398
1.2233333333333334,-0.19895991488063408,0.15375571008478017,102.51790241934164,0.002532858345443744,-0.025032297649799744,0.0005807986083843613
1.2266666666666668,-0.20460554218973087,0.1490129515288435,102.53543867906245,0.004942368743989801,-0.02495150089146652,-0.0007562959772268882
1.23,-0.21371294745829794,0.1494918779119097,102.56420599306566,0.0041890358368497195,-0.022976641162248578,0.00041539672238346864
1.2333333333333334,-0.21968077455654014,0.1375888778897693,102.59613957948335,0.0033633420333671338,-0.03152754085620077,0.0011313016330210233
1.2366666666666668,-0.23312468298213948,0.1319900181042064,102.6225516661465,-0.0008035162651541979,-0.026520777029643398,-0.0008501275405110311
1.24,-0.24290949145870033,0.12377317270110169,102.65071675452553,0.0047125024441789,-0.030297373294003838,0.002553846011226207
1.2433333333333334,-0.25725502320937155,0.11645812952108954,102.66393744752007,0.005068507019337473,-0.036469207990110504,0.00016571783682996243
1.2466666666666668,-0.26951525331950976,0.11072337201221243,102.70039833091408,0.006720506351721272,-0.03573803971543613,-0.0018533427750405122
1.25,-0.2824436229576215,0.10510162007558653,102.70460660471807,0.00850981290367538,-0.0385374577350001,-0.0009179541896075401
1.2533333333333334,-0.2913249265165051,0.10299577709135985,102.72997390211492,0.0106084932977792,-0.03938729244788733,-0.0008391284628211848
1.2566666666666668,-0.3058706147207664,0.09762894761187157,102.75080043161424,0.0067554431489531,-0.038283919205183946,-5.1881386355418205e-05
1.26,-0.31533726583390836,0.07474692261050318,102.76080612623737,0.0059510631792992225,-0.04210613684293663,0.0014908054464342485
1.2633333333333334,-0.3307982715840623,0.07370043722279322,102.78102993930408,0.00627549702974013,-0.04434103257617541,0.0020002479800086863
1.2666666666666668,-0.35533430932075477,0.05964449412848775,102.79939240472744,0.008230540059300389,-0.049119660540290724,-0.0033581284440239805
1.27,-0.37598554008546836,0.046923653085079904,102.80971191386823,0.007413737554742995,-0.051809539438135724,-0.0017931144683837963
1.2733333333333334,-0.3875331015678687,0.03319472275673122,102.82835441722622,0.009859086166573747,-0.046471357824780325,-0.00017424947116511015
1.2766666666666668,-0.41239767079712625,0.027397924245171824,102.83872370573302,0.008069438543031637,-0.05350074205131433,0.0020979319239185184
1.28,-0.431644390796055,0.020781691978172253,102.86613220346543,0.011575398229948797,-0.05157850898821194,0.001908150939498107
1.2833333333333334,-0.4442230736643872,0.018938962436091653,102.88522720494046,0.009374498552216318,-0.05400554650524533,-6.263408731792608e-05
1.2866666666666668,-0.47410370636193155,-0.0026762585394308393,102.90509275961709,0.010878253222813956,-0.05396422950043082,0.0016418411206361012
1.29,-0.49115876509999484,-0.007432365391848491,102.92886069584871,0.009643097483505435,-0.05380127765535555,0.0004937227747230748
1.2933333333333334,-0.5217112267340662,-0.019532687629488215,102.92537715313539,0.0098816171599358,-0.05368706398399064,-0.0032215609452625705
1.2966666666666669,-0.5280342625505416,-0.046126634836080864,102.94569836831717,0.010537736719640343,-0.05640828549359446,-0.00021947119402098783
1.3,-0.5572872456937012,-0.041919416476419,102.9707005350149,0.012842162697121701,-0.05997930261926217,-0.0009034898480092842
1.3033333333333335,-0.5762149430451369,-0.06750475341825836,102.99318782251986,0.010676354641752806,-0.05839380346320989,0.0025324414490410234
1.3066666666666666,-0.6150451037355223,-0.08105057791923609,103.01850992244911,0.0068281987038083525,-0.060825818620653456,0.0022369686409375233
1.31,-0.6353560865897363,-0.08435653340869644,103.03561411355983,0.00861276049464976,-0.05629758205364048,0.0016183303675358389
1.3133333333333335,-0.6497884551979622,-0.107911216702704,103.06067700132542,0.009771375286819203,-0.05851502317115337,-0.002626248654200327
1.3166666666666667,-0.6745426129520216,-0.11873354766901484,103.0995082280746,0.007290403615438434,-0.056900563658988615,0.0005819713975636438
1.32,-0.7051810926098524,-0.12642972085758514,103.11216806496279,0.008770918797289936,-0.06358538113876573,0.0015311760896236817
1.3233333333333335,-0.7244157815249609,-0.1385869166381172,103.1376921226095,0.01289656324903214,-0.05909372668914077,0.0003164637926797903
1.3266666666666667,-0.7478016985801915,-0.15975057323360983,103.18825691731419,0.0062087197391274655,-0.05868979263354922,0.00065646358489557
1.33,-0.7734966982168185,-0.15953663259886744,103.2141208754162,0.013456596682778849,-0.05723992467975879,0.001095608511226494
1.3333333333333335,-0.7903909615238582,-0.17823623938136865,103.2516442914576,0.010850760962042556,-0.05852554328623455,-0.0003110138382304142
1.3366666666666667,-0.8199246368731875,-0.18968639257233652,103.27974283438952,0.008532515481288193,-0.055261080833586426,-0.002261178234012468
1.34,-0.8365674715917051,-0.2045183762987382,103.31634151837115,0.010727158527001379,-0.0563321946014928,0.0018557803811874074
1.3433333333333335,-0.8550599724980192,-0.21435623112690252,103.34692330373126,0.013837498960044345,-0.05600858644214642,0.0001730386483321653
1.3466666666666667,-0.8938889863127121,-0.23044697258616362,103.38832627409919,0.00930154039322106,-0.05750005981953041,0.0008302964186171249
1.35,-0.906958082683833,-0.2465642704138652,103.43579022604006,0.009996089064787793,-0.05461730774532388,8.599360699967901e-05
1.3533333333333335,-0.9289694515157869,-0.24077219362177846,103.47858670038552,0.009573379999257234,-0.05254119869115071,0.0010920314492485494
1.3566666666666667,-0.9491183749327632,-0.26046068675547784,103.5098990977902,0.0067342882070451325,-0.05379978505821348,-0.0010342069317094058
1.36,-0.974487442489082,-0.26089037139884463,103.54809206756255,0.008277459222770197,-0.04963993583630344,3.862353784004591e-05
1.3633333333333335,-0.9984140876116593,-0.28065877316902915,103.59197714561272,0.0061378301268669045,-0.05160454251733185,-0.0012953548644762786
1.3666666666666667,-1.0198753572572263,-0.27716677498776526,103.64457080699361,0.00855075561966095,-0.046441635774557156,-0.001754855907400384
1.37,-1.0362715889935978,-0.30193445144337083,103.69127993910156,0.009087244124450387,-0.04469694448957408,-0.0008394197719471917
1.3733333333333335,-1.0605007708437781,-0.30160550180390666,103.74373397747522,0.008267712022445653,-0.046836232451877194,-0.0028232659385328514
1.3766666666666667,-1.0653681270598923,-0.3025401566279108,103.7805036434725,0.006688606776516934,-0.04502896497681136,-5.200813056121547e-05
1.3800000000000001,-1.0813570057971278,-0.318275307666764,103.82432873592245,0.00478545259876117,-0.04669231245127067,-0.0007036994553835559
1.3833333333333335,-1.1034777954825652,-0.3195313378634935,103.89151155063838,0.008644325992463757,-0.040211735447732634,-0.0013922066448816542
1.3866666666666667,-1.1166184711087725,-0.33361376358107653,103.94330150498958,0.007270224046210744,-0.036530690185698336,-0.0015760099810613176
1.3900000000000001,-1.1350746020612648,-0.33300357043621687,104.01109453709158,0.0062264366323110856,-0.03913813225720311,-0.003509809187042643
1.3933333333333333,-1.1505996942670338,-0.3550476071248151,104.07548782285421,0.004079676938312455,-0.03486137607285506,0.002527059756755796
1.3966666666666667,-1.1712959467262223,-0.36013953508453855,104.11869344616338,0.002720165318325878,-0.032261740340020405,0.000571519798473131
1.4000000000000001,-1.1802877996214145,-0.3582850704373217,104.17884323120458,0.004856412933325925,-0.03191986572554919,0.0016205019862644235
1.4033333333333333,-1.172083076996337,-0.3585375904765334,104.26140030179445,0.003908912047562489,-0.028698947450230546,-0.0006550347094200238
1.4066666666666667,-1.1912410540557798,-0.3594768140735304,104.32370345970548,0.0059183668650990146,-0.03050939231574199,0.0017943229180162803
1.41,-1.194085884261175,-0.3653498413892166,104.40390687002744,0.0028567750604468352,-0.02546166083471759,-0.0021931863300878283
1.4133333333333333,-1.2105356711052708,-0.3744413910211073,104.45979837790692,0.0014383477573956841,-0.022542760422098605,-0.000434426161212003
1.4166666666666667,-1.2230335462079347,-0.36988692406615425,104.53540795732452,-0.0016719122402984784,-0.022312071550966303,-0.0005810236202415101
1.42,-1.2222969243539552,-0.374615090765865,104.61202099508635,0.0030108404811556412,-0.017370083302402545,0.000998114860493458
1.4233333333333333,-1.2230132243918543,-0.3709048700279894,104.67895633030896,-0.0014321011475673874,-0.01751219577061704,0.0003384825305643031
1.4266666666666667,-1.2399923671954356,-0.3683104377145508,104.71965017248141,-4.849513943279947e-05,-0.01559883828290957,0.00091232902044271
1.43,-1.2405668971177832,-0.3675371601022808,104.77413211706163,0.0028694884797369744,-0.010847693161585573,0.0016801916956423958
1.4333333333333333,-1.2319206081039527,-0.3750120492326776,104.83184266546249,-0.0006569996543097966,-0.010037386135180846,-0.0006676756601145141
1.4366666666666668,-1.2392180778691466,-0.3684160163198417,104.88818057020413,3.1093109045273566e-05,-0.01136122725980086,0.002819787776494719
1.44,-1.2333817532956737,-0.36764804251360195,104.94382014822446,-0.000461203377141954,-0.009787918539882257,0.00078697872685219
1.4433333333333334,-1.2199249603241389,-0.3764118973280312,104.9638335921228,0.0004878618062192714,-0.005145035001991955,-0.0012435873632550161
1.4466666666666668,-1.2176930687549343,-0.36481580183162665,104.9904645144911,-0.002110626701137565,-0.002015131762787532,0.0026256058800258534
1.45,-1.2216262187042335,-0.3597857214154525,105.00171841587475,-0.0007675984575602915,-0.0009188931501594939,-0.0003348663460033054
1.4533333333333334,-1.218123376971298,-0.3425666208158713,105.04181652348143,-0.002561017897387837,-0.000435638914072047,3.046542663918376e-05
1.4566666666666668,-1.2097317145570636,-0.3475056057797943,105.05615184213636,-0.00016452324873471053,0.0025798894113821928,0.0012455138466549278
1.46,-1.198348396840066,-0.3353782046603765,105.08175660267813,-0.004418701413725719,0.002421622972793323,-0.0003518783147455297
1.4633333333333334,-1.1886863835838928,-0.34005208415978827,105.07656224026019,-0.0034367652331934134,0.006826711797581167,-0.002264982194563481
1.4666666666666668,-1.1746862321292852,-0.33508036088429444,105.07499489020422,-0.0026577129349574366,0.008012454756348849,-0.00229739532032484
1.47,-1.1678530946474865,-0.3204948941769432,105.0471928923066,-0.002710631994886789,0.007689431855167763,-0.0018276902435071726
1.4733333333333334,-1.156705965391363,-0.3100823709490219,105.0543494537433,-0.0045697849026719774,0.011451415910534384,0.0012567282592821766
1.4766666666666668,-1.1470073344006042,-0.29706556609503904,105.02155651424894,-0.001718819532160746,0.012178667868021801,0.00034172158277785854
1.48,-1.130901528915812,-0.2950873968814399,105.02707711522493,-0.004975146029045582,0.012904556291305038,-0.002114285602220949
1.4833333333333334,-1.1196100573453647,-0.2772115309135809,104.9826503901427,-0.0010784539701199605,0.01458292410101865,0.003238365824513772
1.4866666666666668,-1.0974642954556895,-0.27720970759666796,104.96042095771793,-0.00308792931600459,0.016955739144736807,-0.0016415835565126546
1.49,-1.0803890842928048,-0.26723473638183,104.92451593470402,-0.007794780964228967,0.01949203176701834,-0.0022080512456115614
1.4933333333333334,-1.0715995751911183,-0.26011207372190115,104.88885953193737,-0.00873012909280084,0.015217225711871785,-0.00014386653434661116
1.4966666666666668,-1.0499883987000054,-0.24612303552614978,104.85334771585227,-0.0033678156167282923,0.014017973429800292,0.0017882097323859549
1.5,-1.021320886767291,-0.23397493232100552,104.82521319102969,-0.006622814034431821,0.019037885479814286,-0.0006280465615074328
1.5033333333333334,-1.0157646616967837,-0.22564946604100303,104.80347078836581,-0.006840151537618863,0.018541425147183873,0.0001980818857930537
1.5066666666666668,-0.9996246174992405,-0.21105881243058894,104.77720179477298,-0.0063658873219578395,0.01873251463980806,-0.0005967532814138073
1.51,-0.9665439723322382,-0.20319316239497773,104.75329891243781,-0.0068962508419901465,0.02298259830701612,-0.0032632090292530453
1.5133333333333334,-0.9620674957385162,-0.19960357916311344,104.73313655970594,-0.006967312045711318,0.024372230196828663,-0.00043148655537751846
1.5166666666666668,-0.9410369409299724,-0.18244026069933716,104.73038459499897,-0.006182248094437385,0.024334911169493666,-0.0011334910078900006
1.52,-0.9168688754993611,-0.1676255659204591,104.69647884705377,-0.0071824484283230326,0.025536974139670432,-0.0054227362438434654
1.5233333333333334,-0.9058350006924875,-0.14759218527956688,104.68754393502967,-0.003391303317271037,0.020919071137404974,0.0007707371504387969
1.5266666666666668,-0.8780841288846765,-0.15326929532818032,104.6842996624103,-0.006436490646283179,0.023823810400598895,-0.0016420110397457242
1.53,-0.8508606529799687,-0.13909837320712395,104.67041617196202,-0.0065465954176670005,0.02468287151106158,-0.0008075325403822331
1.5333333333333334,-0.8295259700442233,-0.1347603538088031,104.67728786195279,-0.00593020545212994,0.02213736948677817,-0.0004553452985543924
1.5366666666666668,-0.8248998675055733,-0.11745295551007659,104.66584116205225,-0.007360888712757002,0.019967277345369763,0.0012535113667607152
1.54,-0.7898467548206981,-0.09837223240506543,104.65921671352355,-0.0055645998819160445,0.022376716622809368,0.0006939491538543921
1.5433333333333334,-0.778344176624446,-0.09215778546722508,104.6559565743965,-0.0076026219063828684,0.023258368428276298,-0.00037842915882637095
1.5466666666666669,-0.7556875118258229,-0.08033200564610268,104.66387637433293,-0.010226851931099049,0.02114045665722156,0.003500168751591089
1.55,-0.7444853153682128,-0.07107036866927319,104.66490767055696,-0.0036108369996357883,0.020283605225114007,0.0003282231736931242
1.5533333333333335,-0.721977156482717,-0.06620630323840926,104.66731990806524,-0.0067109004830833915,0.021804713062158768,-0.0022008079897939442
1.5566666666666669,-0.6962228225805988,-0.053190681476631585,104.6746178044807,-0.005645342148742848,0.022702727863138046,-0.0023037532348141546
1.56,-0.6797202993819151,-0.030181881399926877,104.6692919687913,-0.004305217506465134,0.019924704749129697,0.0018635343268548778
1.5633333333333335,-0.6702441263414242,-0.03761171810857966,104.65026077445465,-0.0031160768618397057,0.016222702381290297,-0.0016815579525285894
1.5666666666666669,-0.6539498032473532,-0.026807808624779595,104.64189219564906,-0.003979438174092242,0.01840489809292735,-0.0029500853133581084
1.57,-0.6318449206146023,-0.014151996485474588,104.63663903637392,-0.005710213794339152,0.01741169816105234,-0.00042870786497151164
1.5733333333333335,-0.6229416877529702,-0.022269510434806197,104.61645746082053,-0.004579435819541733,0.01734615364854573,0.002027809820937618
1.5766666666666667,-0.6059735594328121,-0.01146436139718291,104.60281491503633,-0.005741036778930737,0.013163791956299941,-6.232394967796491e-05
1.58,-0.5967309260836293,0.0012378906668834237,104.59469855190018,-0.003945381114130028,0.008514998047042319,0.0014180009783962672
1.5833333333333335,-0.5764584584597169,0.010397564461527026,104.56419547368425,-0.00558127074004287,0.00914138657853927,0.00030021401301111013
1.5866666666666667,-0.5702979836128574,0.013484431435991944,104.53010477587624,-0.003199592762392225,0.00751633994926404,-0.0010344458243724264
1.59,-0.5608876997516169,0.02185947162328542,104.49625466287057,-0.007064280428961122,0.009965816873535517,0.0013835090269396994
1.5933333333333335,-0.5547408074765053,0.024782736980063058,104.47333230687629,-0.0021823491083198345,0.006410009342743418,0.0003196101104567392
1.5966666666666667,-0.5483042257506359,0.03310136975194145,104.4301476278764,-0.002560963901385766,0.006983444819153124,0.002363502745401687
1.6,-0.5328296110628827,0.03632940308265527,104.3999232301958,-0.0005706343846877118,0.0036740825012257228,-0.0023381406004272538
1.6033333333333335,-0.5222794332730955,0.04213380003231508,104.3601830670095,-0.0004655059227850278,0.005452439418390423,-5.275661640418255e-05
1.6066666666666667,-0.5115895671498716,0.03932798057467989,104.2988849032147,-0.0036115963466542915,0.0036485823395015662,-0.0002842050427920976
1.61,-0.5047838142662796,0.037499704063350084,104.25408850451487,-0.001872986377673524,0.001902655245297591,-0.004530976146260499
1.6133333333333335,-0.5171724990175725,0.03652848811219878,104.19201460327353,-0.0018150663242101853,-0.0008887082714329515,-0.0007805916734164197
1.6166666666666667,-0.511563493074222,0.03369240227709556,104.13658595391854,-0.0010736463412699343,-0.005086363453478765,-0.0003378974442077807
1.62,-0.5153999759518229,0.03512269220143242,104.0810008385411,-0.0017313077580635244,-0.002207853963728097,0.001089478394606507
1.6233333333333335,-0.51112328353746,0.03697760559632314,104.02396407949966,-0.0005269989283290681,-0.006001815436106101,-0.00201184548251323
1.6266666666666667,-0.5198914736044529,0.03749057199734496,103.95613410847808,-0.0014761664877820748,-0.010997127403707797,0.0024737693032507
1.6300000000000001,-0.5203396493935015,0.029979438565550895,103.87467307296417,0.0006754252658388464,-0.008881372251007377,0.005542257699481919
1.6333333333333335,-0.5103437650409125,0.028153982568448553,103.81705277691873,0.002459685068536958,-0.010224628784282697,0.0008035222532316346
1.6366666666666667,-0.5400610371755867,0.025639835433309603,103.7484964211695,-0.0010736087583940624,-0.009442809361161694,-0.002479017240147033
1.6400000000000001,-0.530348499949999,0.018748389523243703,103.68541547970041,0.0004116197892229101,-0.015300990388465177,0.0003789709425335239
1.6433333333333335,-0.5329841577136757,0.02000992944644818,103.62019027715418,0.001923502636920389,-0.01364553167030143,-0.0004880689167478571
1.6466666666666667,-0.550689889901313,0.008823339344379228,103.54853203436599,0.00240985392838281,-0.015751829949851474,0.0008657456972768358
1.6500000000000001,-0.5534029707773146,0.007040050777251945,103.49368989559217,0.003925967758403942,-0.01811840648473138,0.0012449049368128894
1.6533333333333335,-0.5613481471852083,-0.001126689871692442,103.43019140305535,0.003396423658950056,-0.018730998660233627,0.00013519951369693836
1.6566666666666667,-0.5775080451154913,-0.0014688433197033316,103.3631360680675,0.0049111493181326765,-0.019753725930331926,0.0013346391878122112
1.6600000000000001,-0.5953674645129978,-0.021249642981685597,103.3038528566268,0.003535007305884486,-0.01747000908858342,0.0014639718502068705
1.6633333333333333,-0.5891114302877202,-0.028843669553164204,103.23916042928704,0.005051092157371445,-0.020564666635948227,0.0011016273637805614
1.6666666666666667,-0.613006641372343,-0.029902176808205623,103.18923296223736,0.0027093043326848892,-0.02441541476759246,0.0017464110093566977
1.67,-0.6262773908812386,-0.025091054947786413,103.13140283305586,-0.0006189771424423723,-0.02330490575554033,0.0034946371335127487
1.6733333333333333,-0.6362282644433419,-0.040330555249180625,103.06264578861811,0.0026846055840209528,-0.021223898391617,-7.990698064839565e-05
1.6766666666666667,-0.6529674920134712,-0.05137230711623988,103.01226457508014,0.0035692916650408206,-0.022778263166592864,0.0011052390445907708
1.68,-0.6756214906421673,-0.06034622963230867,102.94770722713716,0.004818251457586093,-0.024709171957016173,-0.0037985205786865966
1.6833333333333333,-0.673533562193639,-0.073040418809831,102.89124327790086,0.0007830715276414902,-0.02795187650681358,-0.0004078866516168604
1.6866666666666668,-0.6955756565716169,-0.07678681322017417,102.84103290179034,-0.00013641454974045895,-0.02791905990576168,-0.002244530993068807
1.69,-0.7186814742252756,-0.0869570612924892,102.78118218034535,0.0019909259781080548,-0.0256960751255326,0.0019174833121282534
1.6933333333333334,-0.7297787253992076,-0.09430493934939486,102.73067657883334,0.0022958165582915163,-0.02821241893852377,0.0004967835691767331
1.6966666666666668,-0.7579267095626526,-0.10041418688691561,102.68238734268674,0.0014237896002669732,-0.027509026318801772,0.0012539292963129757
1.7,-0.7683487448902362,-0.11094543367453502,102.61760443190872,0.006016241094931709,-0.028916256186747872,0.004195432714628405
1.7033333333333334,-0.7913776767200226,-0.1288668752947772,102.55687538298113,0.0031277645177609755,-0.029463649298467443,-0.0007621255403539618
1.7066666666666668,-0.8007383853980031,-0.12980046348429797,102.5159714903473,0.007508555841052316,-0.027469610761254846,-0.0019037841981657865
1.71,-0.8214915785863025,-0.14418287605756477,102.45720609356115,0.003617419306146153,-0.02979479942434791,-0.0008589037103501167
1.7133333333333334,-0.8379538797024576,-0.15030202047131083,102.4084941552547,0.0048373050009315076,-0.028398351896158535,-0.0032563621676727638
1.7166666666666668,-0.8523352355511807,-0.16088803544390556,102.34641479285814,0.001980268226253708,-0.026029936829651202,0.002374658111368087
1.72,-0.8804444711975117,-0.16825621831438337,102.29691181189041,0.0011304123027098011,-0.029597473921610214,0.00017610772536951603
1.7233333333333334,-0.8912792050462394,-0.18532060669797426,102.23859948008165,0.007171499721555507,-0.031509079628673324,0.003281507439088222
1.7266666666666668,-0.9001429474841028,-0.17792097192043027,102.18580017222041,0.003912558498814221,-0.030270489389275155,-0.0030580423396384384
1.73,-0.9043567573615614,-0.19455330368892582,102.14672293655184,0.004506803968992706,-0.022705039748781786,0.00030954937862425776
1.7333333333333334,-0.9290970018804201,-0.19117513411693987,102.08908984542897,0.001186423856090068,-0.023223109418987458,9.974388477215423e-05
1.7366666666666668,-0.9346524788219207,-0.21526517285589628,102.03676021641031,-9.845472878463376e-05,-0.02749380345819532,0.0006146521471133182
1.74,-0.9601101858805485,-0.22082357184006773,101.97406846799822,0.00311255395878285,-0.023496895334456883,-0.00065996556743121
1.7433333333333334,-0.971127289424115,-0.22635733393896612,101.93405430369583,-8.923913627043555e-05,-0.023582368528822815,-0.00038966785721764047
1.7466666666666668,-0.9840368200638534,-0.2271703595031981,101.87978423137457,0.0015480769862372791,-0.022900961240009853,0.0007268311935657082
1.75,-0.9954385411341304,-0.2325722246301609,101.8458091847466,0.0032200965492873777,-0.022810046567386194,9.630177796075719e-05
1.7533333333333334,-1.0072203329022613,-0.2381344695074394,101.78275525547322,0.0009055679078697081,-0.021455060588176603,-0.0012552187431616648
1.7566666666666668,-1.0159031445483124,-0.23481364629221185,101.74720834548434,0.0005826309832583283,-0.02026505291801528,-0.0013425759635128068
1.76,-1.0176157345995274,-0.23969235150649115,101.69486853183787,0.0032766045157796957,-0.017723413664013546,0.0006566363907207992
1.7633333333333334,-1.0357468055907246,-0.2512681220390609,101.65547394565488,0.003553486032499281,-0.01768674193667561,0.001832200002613012
1.7666666666666668,-1.0414451793886579,-0.2480607187841989,101.61549706671524,0.0029084500442222256,-0.01677645897213211,-0.001353197569747304
1.77,-1.041226978893674,-0.25093798755188235,101.57654002916809,0.002673626216146925,-0.014682706426703487,0.0007913835641631363
1.7733333333333334,-1.0565855589841013,-0.2609444321087623,101.54587171536481,-0.0008962575665208061,-0.013989331029969658,-0.0010177188368661633
1.7766666666666668,-1.0544430104327547,-0.2490988888072532,101.51295000420588,0.004508401450285632,-0.015585417951451502,-0.002774154355101265
1.78,-1.0545619822369203,-0.2560694304453584,101.48063383810535,1.1904058572680966e-05,-0.00931566553157661,0.0026903605720227223
1.7833333333333334,-1.0575367562122504,-0.26275410151570744,101.44980415425994,-0.0024570988496282133,-0.008998370012056037,0.0005872753658062634
1.7866666666666668,-1.0614512629102915,-0.2501492293247679,101.4113335672219,0.0024295782467662315,-0.00892691845409526,0.00040202310249189957
1.79,-1.0582975318360301,-0.24951680711341762,101.36136868186087,-0.002212464596197962,-0.00972346364402267,0.00039063747770806657
1.7933333333333334,-1.0684091805078346,-0.2559746554685527,101.34169744413055,-0.0009369836077079141,-0.009470828027863974,-6.601537492658451e-05
1.7966666666666669,-1.0516140219800345,-0.2564578870813188,101.31067911830645,0.0004331383196035513,-0.006361947679303071,0.00023384782649781905
1.8,-1.0590420163578924,-0.24370380922956417,101.27660648031343,0.0018041591858348205,-0.006076884728210397,-0.0010951948172836085
1.8033333333333335,-1.054790434718936,-0.2500907376840413,101.24745915057525,0.001682881476932456,-0.006349148364209923,0.0018146910170054387
1.8066666666666669,-1.0473368862503125,-0.239180708609153,101.20514128984759,-0.0002566693055880339,-0.00688157951991968,0.0008257691591951542
1.81,-1.0435983194834464,-0.2455502501515929,101.16737481696947,-0.0012640585409928354,-0.005926361602096445,0.0004277797355889257
1.8133333333333335,-1.0320277773935909,-0.2302044542460774,101.1281125189798,-0.0016668086155225115,-0.0029471900071948664,0.0016476430393301412
1.8166666666666669,-1.0313496291616586,-0.22721163911416342,101.09571898666333,0.000223033354038652,-0.003333521373134746,-0.00212853095715366
1.82,-1.0164664690979999,-0.22066584603762138,101.0570193480074,-0.003346138901870321,-0.0035260057345748354,0.0016156979887216906
1.8233333333333335,-1.0058812742563017,-0.22873497126342557,101.01248454457344,-0.0009000807268578742,0.0019120876521228174,-0.001166745363454339
1.8266666666666669,-0.9982448919560353,-0.2150056559979241,100.9542957323466,-0.0014102644715921484,0.0001537284945168638,-0.004318083124632304
1.83,-0.9904782085255391,-0.20253386462065093,100.90029418064603,-0.001486864985474717,0.002180299037922595,-0.001336088333331292
1.8333333333333335,-0.9841607714083632,-0.19515132843059502,100.84575812797054,-0.0028903197724769562,0.0014218384852195955,0.0010253594261867575
1.836666666666667,-0.9679147868649335,-0.1985280571000399,100.79624828397195,-0.005501970404659658,0.0012930723185532308,-0.0011611616865103806
1.84,-0.9598610014336821,-0.18920947694560247,100.74808778983346,-0.0003684220653905352,0.004123952874067706,-0.0006591315642876773
1.8433333333333335,-0.9513539233402447,-0.17811159437054316,100.6720128428918,0.0002827700826117138,0.0038344355412051204,0.002491767491084815
1.8466666666666667,-0.9302772314938725,-0.1641068981726554,100.59367895749963,-0.0019142026389843967,-0.00016413274893081406,0.0003092749163092055
1.85,-0.9264669308938404,-0.16280251167315213,100.50822686234638,-0.0028406660140166485,0.0041559862023377424,0.0014270170610064924
1.8533333333333335,-0.9050436348343353,-0.16235601687019194,100.42964405429234,-0.003282836663498656,0.004152584214638774,-0.0033527456245802823
1.8566666666666667,-0.898675397393307,-0.1405467020928301,100.36209628693628,-0.001251507337289123,0.0031212988353146644,0.0007279950934223368
1.86,-0.8962936759731174,-0.14218871444768416,100.2871049732101,0.0010500390811662205,0.0014214373783347032,-0.00018397821330893942
1.8633333333333335,-0.8749338675295136,-0.13501882597286402,100.19520691413231,0.0013701336201789919,0.005757347846681071,-0.00023103992295643786
1.8666666666666667,-0.8680108683251712,-0.13099180175787006,100.09291011350649,-0.0011352791482303394,0.0033268139672040947,0.0006940447660670398
1.87,-0.8570887309596847,-0.12035344440484128,100.00216770646261,0.001025945724398375,0.007104997124623641,-0.00014431700173256438
1.8733333333333335,-0.8413746996129946,-0.11445170135166824,99.89785833658777,-0.0006289432133290826,0.0019639397950511773,-0.0008199140954933195
1.8766666666666667,-0.8344505551900071,-0.1058416766650347,99.78844522540095,-0.0019934477097353514,0.003407014341977221,2.3828571808661296e-05
1.8800000000000001,-0.818202737401387,-0.10477751509035889,99.69873032558489,-0.002611477795953675,0.003728877580979368,0.0011631803920692674
1.8833333333333335,-0.8111229641134421,-0.09859219211392845,99.59380588043642,-0.0024311160444099975,0.0027830213114642976,0.0014200680257539572
1.8866666666666667,-0.7974665166798557,-0.09490065344300802,99.47337425627296,-0.002118473523784971,0.002342735871895696,-0.0011122711909213202
1.8900000000000001,-0.787636000623623,-0.09379915887053424,99.37425717724653,-0.0032488299920798644,0.0025235494499460547,-0.0006103205198707803
1.8933333333333335,-0.7878994872056005,-0.07837384798595501,99.26788319402785,-0.0023573704566008627,0.00026345778176102845,0.0021153422862880823
1.8966666666666667,-0.7762063201109436,-0.0817791028035519,99.15230404230275,-0.0032464704023186164,-0.0007145800819384149,-0.0036341314773791085
1.9000000000000001,-0.7616878529140559,-0.059633714458778374,99.04189716249077,-0.0001863746279848206,0.0005368615510628028,-0.0008506309951243709
1.9033333333333335,-0.7444638128620057,-0.07005318303768153,98.92833704124475,-0.0038465452116034013,0.001028720641711691,0.0002770271006875491
1.9066666666666667,-0.7567645308349864,-0.05761735416704009,98.81752336129544,-0.002540167596242318,-0.0020662052241316575,-0.00355041332345451
1.9100000000000001,-0.7529409914945756,-0.05065213630741213,98.69967243914995,-0.001222286127282125,-0.0035601276001710628,-0.0006613955846089245
1.9133333333333336,-0.7341855515490966,-0.05859881041702223,98.58480641133755,-0.00030199537810626255,-0.0013799268459264422,-0.001223033183842019
1.9166666666666667,-0.7397652384761843,-0.052456001290376274,98.44806701866833,-0.000929068615564529,-0.00037083655305539514,-0.00010491067979553931
1.92,-0.7266591475250945,-0.06039513510196513,98.35107756630151,-0.0005493112027044743,-0.003967500940751647,-0.0003316201636043106
1.9233333333333336,-0.7301467375648771,-0.05699600823676831,98.2449237615583,0.0014001285508474315,-0.006591810078581836,-0.0014192550237861104
1.9266666666666667,-0.7275196805447676,-0.05316424390863493,98.1444144474727,-0.00029596269301830646,-0.0028770430463632844,0.00037366690386106286
1.93,-0.7310569861264071,-0.04975120052780557,98.02369430456478,0.002207090405043651,-0.007646350285228084,0.0005254837126551007
1.9333333333333333,-0.7266288023911445,-0.06064016946117785,97.91283680159864,-8.463509276696003e-05,-0.008026845980176694,-0.0012169972728952524
1.9366666666666668,-0.7253449729762717,-0.06384479068396583,97.81158851060836,0.00040771871979576764,-0.006292886432695367,-0.000239344390062406
1.94,-0.7256879793623657,-0.058495465096615226,97.70470437501004,0.0008097457383386003,-0.008958716447495341,-0.0022632333660862988
1.9433333333333334,-0.729332934288637,-0.05774442373091127,97.59377006850517,-0.0007459777010753557,-0.007924714808968093,-0.0023733896828223
1.9466666666666668,-0.7281857084368223,-0.06452966372273768,97.48355150852976,-0.0006946201049055061,-0.010983457659879889,-0.0018516650164880615
1.95,-0.7396707777606913,-0.059714607446129365,97.37312840906732,-0.0006377123609736914,-0.008495999615798775,-0.003384498947974317
1.9533333333333334,-0.7330773585007687,-0.0728384356220095,97.27647403150044,-0.0011475134569565596,-0.0104407099156889,-0.0002925659079522965
1.9566666666666668,-0.74629276905821,-0.07009609514004986,97.16132448385063,0.0032468997234046636,-0.01086255664998959,0.0003287735272545492
1.96,-0.7534215964825575,-0.07525238653773975,97.05426880851016,0.0008472613891095204,-0.011933765981582098,0.0012891689919113647
1.9633333333333334,-0.7599797422996977,-0.08690551782298767,96.9451618798891,-0.0009080256104815041,-0.010088998920351547,-0.003286862492182326
1.9666666666666668,-0.7755362688452317,-0.07816991437796383,96.82995466185918,0.000521185408386117,-0.015020239261667245,0.0026137334295020754
1.97,-0.7752790920383609,-0.08083134924169956,96.6914154044553,0.0008108673227526702,-0.015649322657219328,0.0018007458065880152
1.9733333333333334,-0.7906262971303502,-0.093751884382356,96.58426254343271,0.004318001954201643,-0.015091341566523917,-0.0008102237912431414
1.9766666666666668,-0.7968818894768324,-0.08942352037333043,96.46407138014922,-0.0009905711892381549,-0.014551365389378802,0.0015627507584088335
1.98,-0.7966422219164425,-0.09859122764104346,96.33306640010979,0.0012329017628090395,-0.015360975390571002,-0.0037220895889504913
1.9833333333333334,-0.8036608488486371,-0.10786038332553173,96.2171907268118,0.00036086520680295305,-0.015998050803449283,0.0027985383289941845
1.9866666666666668,-0.8192565298256052,-0.10760307661946575,96.09250392961313,-0.00014766011406757156,-0.01464674984111289,0.0001506026089647559
1.99,-0.8336452944269996,-0.1163459874640074,95.9589236861954,0.001498133080733492,-0.012268113499953902,0.0006619665194123575
1.9933333333333334,-0.8458216283610596,-0.11315337094980409,95.84018569615095,0.002673407446092747,-0.013713195254265958,-0.001053465000093792
1.9966666666666668,-0.8457432260350995,-0.12434999488325475,95.71319090203453,0.003897838007866678,-0.011816709803555273,0.0003497812574801665
2.0,-0.8482353164669817,-0.12443752765966326,95.58230650700197,0.0021877299596738393,-0.016404180511569638,-0.0038179164563719487
2.0033333333333334,-0.8744263678091034,-0.13371629717963185,95.45279473468898,0.00159628161671917,-0.014650467913886727,8.99341825392233e-05
2.006666666666667,-0.8671665286008994,-0.1383326643174681,95.33002986780768,-0.0005977067270862605,-0.012798030695721168,0.00034509592862192563
2.0100000000000002,-0.8817455475571445,-0.14740571758122953,95.18797030284674,0.0010500474380950192,-0.015196535037774628,0.0015219259325310736
2.0133333333333336,-0.8927853516116159,-0.1446002617740394,95.04926723410136,0.0011478453656777866,-0.015130027667321966,-0.0034325407046591856
2.0166666666666666,-0.898634724790363,-0.1534269467966699,94.91804233253723,0.0023694206844390503,-0.01414545863031383,-0.0008410036180768549
2.02,-0.9222622972789688,-0.15646181437482803,94.78819660420143,0.0019629014837245114,-0.013370061929411915,-0.001552792781287855
2.0233333333333334,-0.9191855775536119,-0.16862632368728725,94.6397135720718,0.0017466083317521663,-0.014425123811522044,-0.001569854691926691
2.026666666666667,-0.9227916950715802,-0.1650298880620674,94.4821646532293,0.0010024976967910452,-0.012470901763403144,0.004756040561361808
2.0300000000000002,-0.9339793411011232,-0.17031610702601585,94.34270167526928,-0.0017818838557199523,-0.015056393410300874,-0.001926999481150023
2.0333333333333337,-0.9504759357339042,-0.16860528695505228,94.20183102393769,0.0019272037193308806,-0.014784737838163906,0.0005608413548214564
2.0366666666666666,-0.945325640181512,-0.17488771471644662,94.05529141017973,-0.0010676507354242686,-0.012223480182887748,-0.0006696370571377936
2.04,-0.9561011475392164,-0.17594417788705388,93.91212165971106,0.002383007009944491,-0.013735882445881451,0.0019095884573312025
2.0433333333333334,-0.9567369185156637,-0.18639157347142443,93.73010404810752,-0.0003180387569734853,-0.011867498808797592,-0.0025650020703362354
2.046666666666667,-0.9561051504118524,-0.18175459275390646,93.55960841832886,0.0015106218756723408,-0.011203209749117114,-9.194015148529461e-05
2.05,-0.9656731217788249,-0.18681958207620572,93.3837029256214,-0.0007402200094841573,-0.01360963066729517,-0.00254196064068852
2.0533333333333337,-0.9702618767829381,-0.19554469000861097,93.1968101356117,0.000737050448962085,-0.0112128692094733,0.0015381948357695828
2.0566666666666666,-0.9736763897739019,-0.1831796385776822,93.02151839060141,-0.0016600196690729693,-0.009308607920106855,0.0004191668030846104
2.06,-0.9770278484408352,-0.1926192778378369,92.8447075667905,0.0005847988628132628,-0.010332421011731608,0.003091133989332661
2.0633333333333335,-0.969024508911712,-0.1860694503120441,92.64345887660902,-0.001894934162798096,-0.012739918726980349,0.0013108537622464464
2.066666666666667,-0.9816928195604685,-0.19523225115425807,92.42264725009943,0.0029982010927760727,-0.008265497177452997,0.0023541516723710105
2.07,-0.980584349276147,-0.18240071876922984,92.20411927336892,-0.0019222935496790066,-0.007466512083758558,0.0026599047384800426
2.0733333333333333,-0.9816390247422809,-0.18572832175879128,91.99986788031245,-0.0008816009037963022,-0.006325417687457116,-0.003018645557135968
2.0766666666666667,-0.9757572088523662,-0.1865825614548319,91.78250553306547,0.002346057139963671,-0.009466132760331496,-0.0008099807081844262
2.08,-0.975502869791133,-0.17973105309685877,91.57794741212832,0.0016198389954644788,-0.00795460332175493,-0.0011352635063998143
2.0833333333333335,-0.9673951535789984,-0.18176562071976352,91.33974153096568,-0.0002452786023825649,-0.007440523048809689,-7.073993818170631e-05
2.086666666666667,-0.9778233127182553,-0.17711265069684545,91.10888280632015,0.0009054243070294114,-0.00770290908941546,-0.0008021569828121501
2.09,-0.9707561546287944,-0.17297068490892337,90.8853344045241,-0.0004166292352262826,-0.00606483256475666,0.00048001337601799544
2.0933333333333333,-0.9610837730375111,-0.17072864579524466,90.64599795383012,0.0024496869478238792,-0.007555131693173607,-0.0016053939451758357
2.0966666666666667,-0.9569106174949459,-0.1736646639784597,90.41453614249193,0.0015862872414978352,-0.0032717441148353344,0.001033271434431632
2.1,-0.9622861801205251,-0.17110728639971406,90.16252496935934,0.0015483281034035605,-0.0036904165939075652,0.0012580149849082053
2.1033333333333335,-0.949687018153796,-0.16670536371553968,89.93802599714878,0.0020151912566928635,-0.0023338821047288677,0.0001770216871888518
2.106666666666667,-0.9424235464924852,-0.15253118143814326,89.68096078444677,-0.002377700419973502,-0.0039000553498539756,0.002060828247384453
2.11,-0.9483713699645626,-0.15072616468268146,89.43871822597983,0.000272046587398811,-0.0036148440987511035,0.0037196115182093945
2.1133333333333333,-0.9337053255149363,-0.15834454374960868,89.19335875099392,0.00016389224480971862,-0.004792184263071059,-0.0006115075585238948
2.1166666666666667,-0.934798437611639,-0.15324410100703284,88.94597872917853,-0.0041500536429189775,-0.003503709322329614,0.0007093184874436325
2.12,-0.9302536112826145,-0.14671084426178185,88.71011009154071,-9.739042556402265e-05,-0.0014116943875559962,-0.000980187055240221
2.1233333333333335,-0.909328623893085,-0.15412143997469746,88.47002986132631,0.000527610823667781,-0.00499128992669429,-0.0007403828467935136
2.126666666666667,-0.9084444015903971,-0.14979808934729635,88.22286265088782,-0.0016371634121312626,-0.0032313998187891413,0.0003198560704069489
2.13,-0.9110122557903543,-0.1409300296178288,87.98663536941707,-0.001738381466469946,-0.006210709549945025,-0.00018523817925715537
2.1333333333333333,-0.8982992212501371,-0.12822671801715316,87.74474096051667,-0.001427636476619407,-0.0022722084602248833,0.001820495554809595
2.1366666666666667,-0.8848666176209937,-0.11797056266387877,87.51511875320722,1.427491743569067e-06,-0.0037579712848389494,0.0021559624761408893
2.14,-0.8925135028285578,-0.1283389635593979,87.27221348198643,0.00060143788282625,-0.003678991473144259,0.00010264041708103784
2.1433333333333335,-0.8827243905838265,-0.13248627155408937,87.05509814534952,-0.0008751164724815062,-0.007286870345521269,-0.0012851080883674152
2.146666666666667,-0.874089356116364,-0.13085946020541953,86.82818237398851,0.0013007306716199337,-0.005149566658839784,0.00033787249147397254
2.15,-0.8736106038258611,-0.11854476294138491,86.6113845350324,-0.001683225765806247,-0.002999079699777441,-0.001248983229413553
2.1533333333333333,-0.8676152691930953,-0.10843945901069815,86.40285641989742,-0.0037566185748854584,-0.006293699612467308,-3.086664464976788e-06
2.1566666666666667,-0.8792084420567824,-0.12545366503866925,86.18822156575705,0.0008131030823127363,-0.005870788937501101,-0.0017789344971887253
2.16,-0.8624755557920906,-0.11264056261505637,85.96681268395601,-0.0011747399471171334,-0.007274115801173289,0.000780254169144753
2.1633333333333336,-0.8631017478590388,-0.1076163985083162,85.76421393154423,-0.003314981847834342,-0.0021219553000014373,0.0004417713679404617
2.166666666666667,-0.8537481682130496,-0.10489327419996157,85.5607109002799,-0.0005717936585160994,-0.005508290705282319,-0.0011159582824834555
2.17,-0.8587695867410916,-0.10663756345473792,85.34600703284072,0.0013982633007024558,-0.006912080296526725,-0.000580882917004254
2.1733333333333333,-0.8435376381139335,-0.10192498829371677,85.13586756125933,-0.001977638166193181,-0.006883017391724176,0.0023409904721223744
2.1766666666666667,-0.8526483237713087,-0.09871922323743294,84.9311375216152,-0.0006557981844647067,-0.0028669333352055676,0.0027253288207515487
2.18,-0.8426252767172233,-0.0943964870463894,84.72129387852614,-0.0015404158207734523,-0.003869294069609247,0.00020255636160817684
2.1833333333333336,-0.8424700759482081,-0.09386917107623913,84.52011305955567,-0.0009417964387133111,-0.006989419419089032,0.0018089045890033767
2.186666666666667,-0.8488249395649647,-0.09685039723012008,84.32806539946758,0.00028359237350884613,-0.009662399940041129,0.002750841235727334
2.19,-0.8453351385048684,-0.09683180048661985,84.122869784769,-0.0026885320354007604,-0.008675348546467409,0.00017637599073726758
2.1933333333333334,-0.8534438850970494,-0.10193963934499352,83.91633632849725,0.0005841372073819905,-0.004030255870574543,0.003035985757324853
2.1966666666666668,-0.8447152641891508,-0.09704486512743109,83.71438131009448,-0.00047961997102804923,-0.009069408678132973,-2.362503630779304e-05
2.2,-0.8467872526842334,-0.10694653748194638,83.5007630369669,-0.00033764412534327564,-0.009029849103620462,0.0028567439969509984
2.2033333333333336,-0.8448386017483525,-0.09997063479355472,83.31408825593734,0.0034764053522886988,-0.010232062821778402,0.0007574647720281395
2.206666666666667,-0.8497207025890752,-0.10112997706749996,83.11254232600498,0.0007870749137957906,-0.008638757644142582,4.611925500446335e-05
2.21,-0.8433106105011843,-0.10672450905373201,82.92350783381963,-0.0017408346118700593,-0.007836538782255131,-0.0010424894013003985
2.2133333333333334,-0.8584948565670012,-0.10687180557804682,82.7283602069017,-0.0017781343964562541,-0.009849451404977354,0.0005708287451187242
2.216666666666667,-0.8633753655307335,-0.10806444892231898,82.53947455674152,0.0005136205861731517,-0.008828269765519722,-0.0013005368700632495
2.22,-0.8699163019101561,-0.11307487984572823,82.33692439547782,0.0037100946513049767,-0.011394084898543341,-0.0022297421981119273
2.2233333333333336,-0.8678063221636416,-0.1193217088638753,82.14141567700288,0.002232553813070578,-0.011426740769302285,0.0017321121324769175
2.226666666666667,-0.8683789118340173,-0.12609603094158614,81.94058007727736,-0.0008038948358464794,-0.009681581260892946,0.0012405004454040234
2.23,-0.869576345094511,-0.12212237972826478,81.75624298952876,0.0027386507866425163,-0.008675319964284726,-0.004368283677689369
2.2333333333333334,-0.8780347952680629,-0.12565669187713208,81.56610414935825,0.0001604187049091646,-0.007948317437866014,0.0024548456336616394
2.236666666666667,-0.8832306607040121,-0.12820086157561852,81.36812396359323,-0.0006762859776042718,-0.010453621674295926,0.0013390263154312591
2.24,-0.8942232394513215,-0.12918213743044354,81.18193314840453,0.0026791857655526488,-0.007905767138382837,0.0010131633188387608
2.2433333333333336,-0.8954492988573973,-0.13275594105287739,80.99271730664063,0.00175348202885335,-0.01173495450234422,0.0016612464507452592
2.2466666666666666,-0.8995625875787618,-0.13646740594337253,80.8082159037579,0.0019000464758558077,-0.010751745279366075,0.001954178722148877
2.25,-0.9113464335186922,-0.13425977177788487,80.62323477521088,-0.0021142961718006175,-0.011144015983640225,0.0015842672000545327
2.2533333333333334,-0.9095498551060571,-0.1357552627213835,80.42957686392072,0.0031449872801856287,-0.009627705191005486,-0.002112673717390819
2.256666666666667,-0.9186828079214415,-0.14052371827818544,80.24470856918069,-0.0006588433468483837,-0.009866398265974114,0.001792909214587986
2.2600000000000002,-0.9194508151315338,-0.1466172637180833,80.06234627267496,-0.000847286782929258,-0.008699889415517331,0.00012817010202019645
2.2633333333333336,-0.9138282181274943,-0.1386892126331876,79.89013294522039,0.0023605927623192137,-0.010499411844403452,-0.002074535746401705
2.2666666666666666,-0.9269233010350577,-0.14333589101625174,79.72712191056802,-0.0018291421641941624,-0.009785942687878219,-0.0008275358853780792
2.27,-0.9312720173197657,-0.15103337121701818,79.56243483151042,0.00023815576858516728,-0.013549135967836958,0.0013107803164562769
2.2733333333333334,-0.9501958640795211,-0.15350633134316416,79.40289442596509,-0.00035365346994686625,-0.010410887749229169,0.002280284958341949
2.276666666666667,-0.9353419194106937,-0.14263581605883702,79.22298001746134,0.003359196574427262,-0.008622222813708034,0.0006870388268781311
2.2800000000000002,-0.9459216908579677,-0.1594738890098952,79.06309027765681,5.885045089821397e-05,-0.011575218936389294,-7.465339777428267e-05
2.2833333333333337,-0.9466492521650224,-0.14729620674669233,78.910544877414,0.0005428449173752716,-0.009763621302754105,0.0001647347194701109
2.2866666666666666,-0.9409930600924412,-0.15260912769244564,78.76245545779231,0.0017464797182955819,-0.010530426400584164,0.001386130249616865
2.29,-0.9542860204160388,-0.15891930947888983,78.61648895116929,2.2399975761539155e-05,-0.011925859109695899,0.00039311595705343106
2.2933333333333334,-0.9476095395656208,-0.15548799366507152,78.47113562888383,-0.0023740793386276913,-0.008395345900993856,-0.0010786686673528664
2.296666666666667,-0.9576576703917338,-0.16135625887437952,78.31803263343518,-0.00017855327064594182,-0.009140580945141911,0.0008096553756199374
2.3000000000000003,-0.9611458744071664,-0.15405288251693014,78.1798201587225,0.00017231007604403146,-0.01050431982383018,-8.927169086474767e-05
2.3033333333333337,-0.9582158852711523,-0.15564000489143145,78.02502089007835,0.0007967766015749561,-0.006961976149363165,-0.00023660349363614696
2.3066666666666666,-0.9616680883581001,-0.1522609306801487,77.8562899170946,-0.0022390970778450653,-0.009568415797785468,-0.00039750535704706654
2.31,-0.9623167542403942,-0.1448821095399769,77.68537751544255,0.0028265644777931602,-0.008084510546468058,0.0013187058975604328
2.3133333333333335,-0.9527396974638491,-0.1578802147567,77.53199335821088,-0.000834780308570506,-0.007319065238243685,-0.0022801419611424914
2.316666666666667,-0.9512544627711932,-0.15739924768401045,77.37059805656828,0.0005676693281234735,-0.007720755631322153,-0.0021073504947303067
2.32,-0.9441691780461805,-0.15548103188202939,77.19136310081984,-0.0008544865330514381,-0.006669801227761229,0.0006529620845388778
2.3233333333333337,-0.9529302852490767,-0.15184473186874556,76.99784372844267,0.0014336822241407547,-0.0059655440727530195,0.00042818958440816763
2.3266666666666667,-0.9539418067487271,-0.14818365541759618,76.78079631267552,-0.0004339082467885239,-0.006093584820378187,-0.0001782331882175872
2.33,-0.950954962334416,-0.14782570291699274,76.5579890571358,-0.0004132750861096975,-0.0028536307873445925,0.0009570784938330603
2.3333333333333335,-0.9516411117261384,-0.14917274301370811,76.35330714580667,0.0025717900332980783,-0.0044980094178969435,0.0007367096514070702
2.336666666666667,-0.9534737988742297,-0.15095647686458924,76.15068052394942,-0.003359866692887904,-0.00831218065721305,-0.002849532366499458
2.34,-0.9455923520957286,-0.1523843311547461,75.92784240974414,-0.0018821661877592418,-0.006081160753110325,-0.0019075376709635095
2.3433333333333333,-0.9569136377294256,-0.14907826954336859,75.72256943066833,-0.0020196038112360376,-0.004073028905397527,-0.0008608039901435698
2.3466666666666667,-0.9364202460370045,-0.1439145178269535,75.50080988912079,0.0002600785375689863,-0.011945321947784748,0.0013411767720191905
2.35,-0.9483882229883563,-0.13308109410938918,75.29495034031044,0.0003808741711189658,-0.004449398724162165,-0.0008692334052218103
2.3533333333333335,-0.9299552547396976,-0.1321065351684202,75.07833251951813,-0.0017213644347069841,-0.005485547391069221,0.0022490348231068076
2.356666666666667,-0.9370768688142863,-0.1436718272175475,74.8659120498949,-0.0034018792011334805,-0.005756288293643769,-0.0008988210653426671
2.36,-0.9379152944105553,-0.13583782059979074,74.65397712735535,-0.0006709848125340198,-0.005681268750574159,-0.004333839816069359
2.3633333333333333,-0.923398612369889,-0.13938111802176864,74.93329430473645,-0.0036067259872383317,-0.0032864623527661006,0.0017435729307357195
2.3666666666666667,-0.9291620877966233,-0.13227183661994105,75.34838720790522,-0.0006019771322379137,-0.007937747914179198,-0.0022720638476895713
2.37,-0.9210919947410755,-0.12445536463115275,75.76640768106131,0.0025448116045548664,-0.0063633155458022485,-0.00226768366671485
2.3733333333333335,-0.9260148606404723,-0.13157879565600336,76.19634368289499,-0.0020794880457048553,-0.008304112043733172,-0.001097064750963674
2.376666666666667,-0.9320456941920512,-0.12886565116029763,76.61399672941285,0.0011961784653202598,-0.006082924566658554,0.0012496651992540135
2.38,-0.9244586962650938,-0.12946201721795234,77.04958594125053,-0.0003552701580002571,-0.0076944593638672626,0.004030262500646382
2.3833333333333333,-0.9185295028118009,-0.12153725840811543,77.09352436624643,-0.00032139637860020083,-0.0067747986797405575,0.0005567207783524991
2.3866666666666667,-0.9234735873455696,-0.12683903733112775,77.02224167545056,-0.004295255467258638,-0.008283536609862238,0.001683966513144572
2.39,-0.912104329952272,-0.1252386160213948,76.93562739292199,0.00011036621854564147,-0.006423795005800982,-0.0001127019115810227
2.3933333333333335,-0.9179451878870398,-0.13138017859937606,76.88361315097777,0.00044244961634091573,-0.007542206620163917,-0.000368644258813209
2.396666666666667,-0.9213693013705254,-0.13100115515604366,76.81067640767053,0.0010841247778970704,-0.0070128208924562065,-0.003364810207701411
2.4,-0.9091059006336101,-0.12787391036709145,76.73825620542642,0.00017197099768681302,-0.0036000452096064976,-0.002306770634859132
2.4033333333333333,-0.9086727072983855,-0.11926553034051496,75.70339922954501,-0.00029625918678674807,-0.006523445696555411,0.0007795392375068796
2.4066666666666667,-0.9131272653342455,-0.11527939783959122,74.37817225687729,-0.0004429986952246143,-0.00713016195511181,-0.0024295561486196156
2.41,-0.9205289077105253,-0.13161153789115346,73.04475475913611,0.00017131398567320604,-0.005520796611281992,0.0013059004535993031
2.4133333333333336,-0.9104062367035488,-0.11108265239635011,71.71766099649138,0.0031299721731580343,-0.007347611645281092,-0.001277715295022814
2.416666666666667,-0.9109234462464068,-0.11293605725927201,70.39390043134841,-0.0014043796103113174,-0.0092159986054762,-0.0025263611209951245
2.42,-0.916860667385778,-0.12259014103732496,69.06350935448347,0.0016601988999956482,-0.007620846918666311,-6.369138657016521e-05
2.4233333333333333,-0.9185658536936542,-0.12380403475226447,67.5262862047849,0.0009784890405678153,-0.007196076335178699,9.481663509172943e-06
2.4266666666666667,-0.920328033675813,-0.1322169828969143,65.92352125794557,-0.0006128230601229422,-0.006757790644412776,0.0005346122650078189
2.43,-0.9166727984176395,-0.1210298658530226,64.3284454675392,-0.0022944393017684758,-0.009951429439515153,0.00028009654838693745
2.4333333333333336,-0.9204516639780951,-0.1331899307704026,62.729930212961435,0.000961710434333633,-0.007111004269018928,7.181866301362523e-07
2.436666666666667,-0.9219692795020952,-0.13324606461066305,61.12588933259674,-0.0008724469785003908,-0.011030844770773911,-0.0009241742380635561
2.44,-0.9196049183114198,-0.1293966044390206,59.52495510869526,-0.0007080803713494738,-0.004623942138946191,-0.002560435289335007
2.4433333333333334,-0.9280447837428518,-0.1261581277748377,57.39566341520576,-0.0018635800086704854,-0.007222109008425693,0.0018661540571920895
2.4466666666666668,-0.9223839440051171,-0.12398036883251487,55.086844066585115,0.0003464467370336161,-0.009735417689980885,0.0005219257314194594
2.45,-0.9299061903989707,-0.13634488505676484,52.78747956748583,0.003182782874016258,-0.008050156603499987,-0.001653551769583726
2.4533333333333336,-0.9380444889199724,-0.12847326304995213,50.463230464074215,0.0016667041600744346,-0.00681127273443043,-0.0015388683543620081
2.456666666666667,-0.9471765791280214,-0.13374647623380023,48.17866102118976,-0.002277490727387508,-0.007132795691081517,0.00026026279575715053
2.46,-0.9535285282686892,-0.1244517810819139,45.874909095554095,0.00011293283759219308,-0.008067600757247164,0.003085086123158182
2.4633333333333334,-0.946404238724803,-0.12354734882355121,43.967671054384,-0.0012982607560944191,-0.0070680383150370195,-0.0008878641427106132
2.466666666666667,-0.9596472163696894,-0.13611493303609934,42.18677037462695,0.0016077183887380816,-0.008849867431369117,0.0017235796643816105
2.47,-0.9650362860788348,-0.12526063476397267,40.41711408857583,0.00043268018069406427,-0.009187762177223311,0.004217834239692998
2.4733333333333336,-0.9729036444877082,-0.1306860733889588,38.645448528584176,0.0021515425294234055,-0.00896558467067644,0.0003339182906348488
2.476666666666667,-0.9736489860485575,-0.13282735488907874,36.86586113851106,0.001353335617680462,-0.011465793751472365,-0.0003469104644126141
2.48,-0.9713522194658084,-0.1366672851661182,35.08878031399838,0.0017361860879551623,-0.0077315861434492095,0.0004848939133607272
2.4833333333333334,-0.9779411809625795,-0.1363235936889556,34.28730500724207,0.003016091760138737,-0.009347600442865471,-0.0005416883272286153
2.486666666666667,-0.9675844841093436,-0.139844339929965,33.78892635259288,0.0010166890919646693,-0.002073982841387322,-4.70039081650985e-05
2.49,-0.9836447744939083,-0.13318123919037464,33.28320873694289,0.0008405301563104647,-0.008043230070459479,0.0002279475816632843
2.4933333333333336,-0.9858585636441263,-0.13024125588508506,32.768974613764975,0.0023897274120893907,-0.00747923065154211,0.0021517489000153598
2.496666666666667,-0.9886276242888721,-0.13831356528567562,32.27100884885949,-0.001388486162178449,-0.0065491431287395966,0.0005280347218283224
2.5,-0.9908450762405216,-0.137097955029133,31.771900646260182,1.7243491894691873e-05,-0.008249977271202365,-0.0015265656938703222
2.5033333333333334,-0.9817413103413148,-0.13094125251964553,31.50109712309545,-0.000958591212502221,-0.003425296475410039,-0.0012787832582460696
2.506666666666667,-0.9894009077331213,-0.13234032461378054,31.295952849869618,-0.0012489630222660272,-0.009364868707923822,-0.0002471966386631383
2.5100000000000002,-0.9834459643379402,-0.13675289547025118,31.099279796765767,-0.0035010182846679574,-0.0065923990102028825,-0.001634015030454409
2.5133333333333336,-1.0014390959269037,-0.13748267937252553,30.89889563699734,0.0008487533979535422,-0.010255554263314842,-0.0008526614589739643
2.5166666666666666,-0.9884503277641105,-0.13829573385198193,30.704552013779256,0.0003133499691413339,-0.0028254640770593747,-0.0025650634480465033
2.52,-0.9882613064278419,-0.14005632301696894,30.50135362889985,-0.0009864702002679183,-0.006994586979782173,0.0005209274707565949
2.5233333333333334,-0.9888378448765334,-0.13531272218804719,30.35631235968836,0.00148688177641044,-0.005283629964977871,0.0018312902079603334
2.526666666666667,-0.9859404924262506,-0.1405036999750605,30.218020337347262,-0.0007910428675801636,-0.006137896546861448,-0.0005142809810722661
2.5300000000000002,-0.9846954765726115,-0.1390566009664565,30.087137336140383,0.0006843121482557606,-0.009521305758362523,-0.002917691155304083
2.5333333333333337,-0.9909423356537616,-0.1419738183987994,29.96172345449892,-0.0013552958885030084,-0.005864747908659724,-0.00014179714789058832
2.5366666666666666,-0.973011503639673,-0.13474010920111393,29.818376621286202,6.818749992776709e-05,-0.00598968464486366,0.0010681744079870435
2.54,-0.9818015826899558,-0.13815464866879204,29.68980861767721,0.00010800797164469854,-0.005750767671986091,0.0014451017854404567
2.5433333333333334,-0.9745557451969041,-0.13586391424617186,29.537462389167118,0.002710802728927368,-0.004041306971582501,-0.00023154921964038197
2.546666666666667,-0.9642416132327332,-0.1286960264885947,29.41314305247367,-0.0004906161307740519,-0.004558903648831294,0.000274541396343803
2.5500000000000003,-0.9789738787177454,-0.13795351577506476,29.26986356856547,0.002605145984335831,-0.004264814487965495,0.001967998250733839
2.5533333333333337,-0.9694632083599473,-0.1514742938356881,29.140351723530333,0.0017456450240204216,-0.005807903727680715,0.0018808932477612538
2.5566666666666666,-0.9690946827190349,-0.1472268146614117,29.007884148527808,-0.0034810827251500966,-0.00807811238821733,0.0010484711915655217
2.56,-0.9765620683643544,-0.1320852253134192,28.865630857652846,-0.00038555245828033116,-0.0037599200675453694,-0.0022719300547806302
2.5633333333333335,-0.9608677777270102,-0.12437592709925892,28.76728837307395,0.0022727638451612246,-0.004775001915499095,-0.0015771857461890446
2.566666666666667,-0.9550954256060556,-0.12977403259159956,28.691387353752518,-0.0004090239769891649,-0.008762085570230612,-0.0022060078805923138
2.57,-0.9530795800822731,-0.1372799541812728,28.615561981798752,0.001760284604896024,-0.005074390443118118,-0.000530119388507335
2.5733333333333337,-0.9456146976686095,-0.13569876843599535,28.512264565797746,0.0025892043164289034,-0.006832290242024085,-0.0002721726436766263
2.5766666666666667,-0.9531997864083513,-0.13263460959764345,28.427686920758344,0.0003964302469924957,-0.005057253889015919,-0.002511138944841612
2.58,-0.9429308077661991,-0.12927567586641966,28.346870255995007,-0.0009024798731222968,-0.006577419364017931,-0.0014399611495213296
2.5833333333333335,-0.9459226605191764,-0.13935712429195943,28.224996282870222,-3.116026557853065e-05,-0.0075664352050344415,-0.0007792712741347943
2.586666666666667,-0.9379353521737317,-0.1288063411957915,28.101726583700295,-0.00034793996130999473,-0.0093754494185183,0.0009396717726286646
2.59,-0.9497148559872907,-0.134871964083336,27.979593507861743,-0.0011783127474909254,-0.005571791317918562,0.0009870905846152567
2.5933333333333337,-0.9490916696480574,-0.12712938611933813,27.842659653131662,0.001279193299071115,-0.005669136923151832,-0.0010917206320913326
2.5966666666666667,-0.9408555027547268,-0.1254018068213235,27.713427422021386,0.0029206813013755275,-0.005182373678074155,-0.003096006543670476
2.6,-0.9390641740757872,-0.1269692412252628,27.590730778088506,-0.0012091999983038968,-0.005955310486023074,-0.0019196825240971752
2.6033333333333335,-0.934575389155787,-0.13326271862086048,27.454708792101574,0.0006859646890373317,-0.006612026830759221,-0.0007819384694082703
2.606666666666667,-0.9436059352035474,-0.13801722395950453,27.32141926238598,0.0028700322488499335,-0.007381990255938513,0.00014528340460957684
2.61,-0.939799366183632,-0.13738567227712897,27.17767397647713,-0.0012499911370127163,-0.006841927870171163,-3.6289896478049236e-05
2.6133333333333333,-0.9441991165854438,-0.13106205831611323,27.03702198256701,0.0024461487627398157,-0.004803400705493053,-0.0005341605301585125
2.6166666666666667,-0.9528675322122259,-0.13790411222405752,26.911344396467946,-0.001218326080717327,-0.011856033839027228,0.001009861096248737
2.62,-0.9416892709024428,-0.13517834305722015,25.33513578808219,-0.001120345837843158,-0.0030210011707632128,-0.0021549116174235067
2.6233333333333335,-0.9556282509415143,-0.12292500661017353,26.649320009699753,0.003069582945460851,-0.00901733044797536,-0.001115801438756625
2.626666666666667,-0.9599967589870062,-0.12572539909597572,26.52098757371163,5.0106456370090546e-05,-0.01026653856505312,0.0030432166758762786
2.63,-0.9497089937706568,-0.13223697619551222,26.38740931313881,-0.0007702333696386901,-0.008836104235395992,-0.003996458227476076
2.6333333333333333,-0.9533672891118931,-0.13200049245480647,26.27223451435758,0.0031200008489185296,-0.004971064492145856,0.001117285613541681
2.6366666666666667,-0.9570679554284197,-0.13196139098455303,26.13444639033745,0.0008173587127696725,-0.00622463814973344,-0.0010434665081046457
2.64,-0.9632073121209043,-0.1296653799700339,26.00332470460079,-0.004167585182825039,-0.01047058773982814,-0.001231363720887683
2.6433333333333335,-0.9627941160048996,-0.1302589806357132,25.880377863559275,0.0006764447995909364,-0.005156513072738192,0.0027088115442678662
2.646666666666667,-0.964316300378355,-0.12957160801043108,25.75468864954596,-0.001840463290115705,-0.005964619672500504,0.0016351110504791238
2.65,-0.9631834694701975,-0.12737590574202193,25.638542125409646,0.0024076954660730786,-0.005187895904640916,0.002603622324813129
2.6533333333333333,-0.9598608149688871,-0.12877022264040067,25.502959138276783,-0.00018557602814727668,-0.00841014030448111,0.0034291168228619924
2.6566666666666667,-0.9758527974600435,-0.12957637336430766,25.38451952241803,-0.0005960757999348548,-0.005393415932313535,-0.0008902863099964194
2.66,-0.9708678924701128,-0.1252494073050024,25.24772115682943,-0.0011148442538581474,-0.006826158470097366,0.005396862665512443
2.6633333333333336,-0.9801920201460548,-0.13399141651509133,25.14346750650017,-0.0008369870350421529,-0.0067687049500915865,0.0005937276260396758
2.666666666666667,-0.9851409521014449,-0.12346992212662943,25.03455979558599,0.0012153283139110013,-0.0050723106684872,-0.0007374089297189871
2.67,-0.9761262901850949,-0.12997022260812002,24.92549558017801,0.0017034166030330828,-0.008657899348423514,-0.002102439033431387
2.6733333333333333,-0.9776174564877694,-0.14147987386846936,24.817155935875576,0.0005456302961464508,-0.009110881079780109,-0.0020003345372078575
2.6766666666666667,-0.9732327252370921,-0.14524234510487022,24.713155756623948,-0.004646620046857452,-0.0051210060852086925,-0.0016063614124613075
2.68,-0.9870514762746904,-0.1313653644693969,24.603383281139422,0.0022640388936095114,-0.006070762740883267,0.0002565294833186609
2.6833333333333336,-0.9825988803445611,-0.1296777081143992,24.49459780937443,-0.001633625960300902,-0.006195736659038007,-0.00020731776490198384
2.686666666666667,-0.9865534753670969,-0.13229310658467455,24.402293586665955,0.0016351825954670361,-0.00937822231771814,0.0003767133908107813
2.69,-0.9861171494563842,-0.13742514238314535,24.298440454379342,0.00224535208858942,-0.00460894570477156,-0.0018415559769788504
2.6933333333333334,-0.9873937377431999,-0.14261232039229615,24.204833722838103,0.0005441617248431084,-0.008370367321760214,0.001478718896902404
2.6966666666666668,-0.9925197594510679,-0.13297914664009322,24.10746403341032,-0.0003714722155988444,-0.006741392416227075,-0.0012230631878508197
2.7,-0.989695474713168,-0.12659920142753586,24.00621951554981,-2.955858328411833e-05,-0.008693077176731958,-0.001474074796860787
2.7033333333333336,-0.9847344916499979,-0.1292832567455685,23.905506046008195,0.0005179434348249187,-0.006742565423803452,-0.003963875565774221
2.706666666666667,-0.9919548283832941,-0.1332618662026236,23.812134976488412,0.00034577665711193876,-0.006659826613373327,0.0017313123586024776
2.71,-0.9931931720120153,-0.1432329262456719,23.714078321277064,-0.0006784596032994786,-0.00476301348260466,0.0011203508530189725
2.7133333333333334,-0.9887041529426905,-0.13310725288128117,23.62040811134985,0.00028206088323856605,-0.0077237207431160426,0.0013918288177301181
2.716666666666667,-0.997163496349574,-0.13111242078109886,23.512922024093765,-0.0008390485989033372,-0.009889793709786012,-0.002598293566264844
2.72,-0.9911420906309952,-0.13524285591993765,23.42810976954838,-0.0004444206842697468,-0.007311899284515101,-0.001283800261345377
2.7233333333333336,-0.9948624578652511,-0.13747966748949145,23.31798405873912,0.002141296247938412,-0.0060878825504581974,-0.0010014152137616192
2.726666666666667,-0.9888458275429506,-0.13153163826594352,23.225193636491017,-0.0013354123172132876,-0.00855169103589359,0.00040786451180640625
2.73,-0.9854639215268505,-0.132150379746669,23.133551905992555,0.0014767861386951247,-0.0077715125963214214,0.001885488315558809
2.7333333333333334,-0.9848579868203179,-0.13629714007163032,23.03204936411735,0.0009461706888425795,-0.009209740884442406,-0.0006517343232429817
2.736666666666667,-0.996890686635938,-0.13533383938344512,22.930885428227207,0.00504277563620083,-0.00665886459664134,0.0005592205015619704
2.74,-0.990801565649303,-0.13922382284659887,22.832899499968452,0.0005808889076439133,-0.005914531827709558,0.0017017480189045065
2.7433333333333336,-0.9872104745289244,-0.14078508109345142,22.737068026681428,0.0006091501802256855,-0.004765704554461816,0.00024062748501816272
2.746666666666667,-0.9983073817528614,-0.1286439606417407,22.644226729286196,0.0007650907252641911,-0.0056079259928941035,0.001135953153488007
2.75,-0.990963121075076,-0.12942986509020804,22.54480484658624,0.0011051267211753192,-0.0017747428021662919,-0.0011463764711615106
2.7533333333333334,-0.9790199035171899,-0.12483786256764061,22.45865863294192,0.00016709832633796015,-0.004651529268048118,0.0036728617655976442
2.756666666666667,-0.9903926356543844,-0.14220601569832297,22.347447960033882,-0.0006447450872053395,-0.003658955675007079,-0.0005739790681838107
2.7600000000000002,-0.9908540834419842,-0.13876915989350325,22.254872596114495,0.005460467807126543,-0.006070884833381544,-0.0020809907425551485
2.7633333333333336,-0.9857723293108506,-0.1392518523338331,22.1543954552113,0.0015680551674302381,-0.00857928453609164,0.0017509804386456101
2.766666666666667,-0.9890125266637549,-0.13825974619699455,22.060433033017784,-7.597847580029845e-06,-0.00732057563401479,-0.0005575269256864128
2.77,-0.9758592053647546,-0.14333295459337594,21.96571954387925,-0.0010438478652877049,-0.006592259349467725,0.0009307941548416125
2.7733333333333334,-0.9780540240190482,-0.13252367963680037,21.86209309390236,0.00015500690508262106,-0.005289766903360936,-0.00046145651064542076
2.776666666666667,-0.974581344622595,-0.13767822091430215,21.771960887408003,-0.0004932473947086794,-0.008276261360477634,0.000577179042257229
2.7800000000000002,-0.9820238263983224,-0.1363456062546886,21.680450306274004,0.0007023965048939954,-0.008185239393402861,-0.0015901610839011808
2.7833333333333337,-0.9869096358949015,-0.13529597743462768,21.587891106502965,-0.0006064374897282182,-0.004511747644543462,0.0010501783832804039
2.7866666666666666,-0.9833263714853715,-0.1328146303725766,21.505409453233938,-0.0008764663765923815,-0.005861460749396507,0.001452808547098927
2.79,-0.9878348858861173,-0.1412725212701095,21.43128050695231,0.0004028258301252911,-0.005204453961731149,-0.0021318189097421342
2.7933333333333334,-0.9817071578016193,-0.13521704645470753,21.32742675553388,0.0021853790517682384,-0.00779593869107712,-0.0007489547953672922
2.796666666666667,-0.9766811823963429,-0.13072688413176856,21.241456391696822,0.0029293214952432747,-0.007994894990489127,-0.001060316166314419
2.8000000000000003,-0.978802939410098,-0.13201510450159945,21.159978605380825,1.348710262985477e-05,-0.005210613654960867,3.810373561538647e-05
2.8033333333333337,-0.9750812614927705,-0.13533347941379253,21.074005557275115,0.0014941857384238087,-0.006147427157657566,-0.0021261248844211527
2.8066666666666666,-0.9846786997595135,-0.13773505919622714,21.00379363463068,-9.0614019624759e-05,-0.003591527335043279,-0.0009663294881601184
2.81,-0.9782410448713649,-0.13738643195292397,20.92820209107051,0.0016433696975981468,-0.005425092214804366,0.002505848519461652
2.8133333333333335,-0.9869553776801451,-0.13961008613266962,20.847010454641865,0.0019049090901471829,-0.007452871501264509,-0.0014723204818501378
2.816666666666667,-0.9802354891453987,-0.13885948894017294,20.76284171272839,-0.0012505998340772747,-0.002046141038015305,-0.0010581351514249726
2.82,-0.9856418481832119,-0.13948000755389334,20.687872580401997,-0.0014601979811007604,-0.005900655767940769,-0.001547579613496706
2.8233333333333337,-0.9929048956789082,-0.1304939338508661,20.617026589751653,-0.0005517150408675723,-0.005541544350146156,0.0005784572258328754
2.8266666666666667,-0.9880077084703487,-0.14411856060712488,20.53557382814496,0.001431746815600511,-0.008852760233261415,-0.002506044502314912
2.83,-0.9864925844737318,-0.13276894852713841,20.45893030797524,0.0010778719305791478,-0.005911008483349011,-0.0009668230029137436
2.8333333333333335,-0.9867779004575531,-0.12527115038852354,20.363723742522208,-0.0025993730309005108,-0.007700996978106298,-0.0011703867574764002
2.836666666666667,-0.9887962407621959,-0.13873765083314143,20.2880734930514,0.0028581789484413314,-0.010136082614482208,0.0018964204010335115
2.84,-0.9943606476504383,-0.1345647135500056,20.210235785581038,-0.0006518943690172105,-0.00845923256639651,0.002750820813593503
2.8433333333333337,-0.9981165649702677,-0.1386703856703249,20.137168665142145,0.00034907999602108014,-0.008096095757595765,-0.00040524018297770803
2.8466666666666667,-0.9906383250776961,-0.13624744305232103,20.06726020060646,-0.0018401769498266568,-0.009502566830565412,0.00032999762135199834
2.85,-0.9920425609175051,-0.13605798785985643,19.992412480343138,0.00115571160024852,-0.006277044305778612,-0.0011460539934895315
2.8533333333333335,-1.001813602718513,-0.13774608016311088,19.937225682227513,0.0012635791308520283,-0.0056549635748764805,-0.0018947273210741067
