time_s,accelerometer_x,accelerometer_y,accelerometer_z,gyroscope_x,gyroscope_y,gyroscope_z,barometer_v1,gnss_x,gnss_y,gnss_z
0.0,4.601206150274685e-05,-0.0013739246807871,-9.77752219605232,0.002048319084737,-0.0013843959673591,-0.0011774336589017,96453.54835105536,33.49864203713925,-99.33759395803352,422.154068118269
0.0033333333333333,-0.0005770212854013,0.0059638162598829,7.590435104412141,-0.0014564099912853,0.001815100282707,0.0004468314699788,,,,
0.0066666666666666,-0.005322803636547,0.0054503102975266,12.09371769429655,-0.0029741656059482,0.0005997257779714,-0.0020147500786989,,,,
0.01,0.0095664937167959,-0.0027507605577003,16.570809259778848,0.0003137269295424,-0.0023599384350723,-0.0009692700930544,96454.22919638116,,,
0.0133333333333333,0.0044335955416013,-0.0102818907148262,21.07071289810311,-0.0001082475130832,0.0031875075739443,0.0031286066205205,,,,
0.0166666666666666,0.0023245384016525,-0.0061387026527403,25.57035702650415,0.0003632200516841,-0.0037332076203297,-0.0010282818805232,,,,
0.02,0.0023727719245786,0.0084439604308135,30.06706217545872,0.0001670534016908,-0.0004599587866622,0.0020002018886841,96453.86263866842,,,
0.0233333333333333,0.0036656051285307,-0.0056970310209314,34.55474243816109,0.0027510058592918,-0.0008456272062067,-0.0033717372463223,,,,
0.0266666666666666,0.0035521399538846,-0.0082277365629962,39.06389183957893,0.0004274923198801,0.0003898769313056,-0.0046713399975109,,,,
0.03,-0.0100276019834452,0.0011429648474491,43.56755370137952,-0.0014917464321738,-0.0007066307035234,-0.0007581379563606,96453.89837085071,,,
0.0333333333333333,0.0124748681388862,0.001275743450378,48.04760366317512,-0.0004810762865829,-0.002238169156051,-0.0003370875873405,,,,
0.0366666666666666,-0.0062978431655606,-0.0008067983188838,52.54244363195856,-3.685479183101234e-06,-0.0001273715396662,-0.0014412228142173,,,,
0.04,9.841268280091527e-05,-0.0034059795791618,57.04799637505016,-0.0010789603355201,0.0021308590131438,-0.0017437243705575,96453.72638964796,,,
0.0433333333333333,0.0030287322579919,-0.003046908245168,60.89703364804596,-0.0011631866836443,0.0012830147225309,-8.87370408144992e-05,,,,
0.0466666666666666,0.0014152689476192,-0.0052533639991764,64.73820767275159,-0.0006422705730981,0.0006734589488224,-0.001572658319238,,,,
0.05,0.0001560910111768,-0.0088912875750239,68.56871884153264,0.0004446559302315,-0.0004168134529291,0.0002312693787226,96453.8878977057,,,
0.0533333333333333,-0.0034976551841147,-0.0029761953586257,72.40304027967859,-0.0014325768301575,-0.0003574182617239,-0.0005164348586468,,,,
0.0566666666666666,0.005417028776969,0.0011756899765318,76.23293496584789,-0.0006550603409717,-0.0019244169291875,-0.0009566595064076,,,,
0.06,-0.0072897485030201,0.003790547674005,80.08282249950531,-0.0016323553081597,-0.0016500858561728,0.000568774371713,96453.63154755888,,,
0.0633333333333333,-0.0046118858694442,-0.0043157812139905,81.27829272291575,-0.0030645618745647,0.0004886083980417,0.00123876895092,,,,
0.0666666666666666,0.0047225154372696,0.0013818882331616,82.39148992735736,0.0005764861252375,-0.0005215408223998,-0.0003148948712683,,,,
0.07,0.0016476897466037,-0.0014252440282145,83.49649357392757,-0.0016834120403555,-3.699509950910063e-05,0.0018571337344924,96452.52572102554,,,
0.0733333333333333,-0.0006139032264096,7.98631427900545e-05,84.62367616631346,0.0018063530087642,-0.0030535072606822,0.0006992222315101,,,,
0.0766666666666666,7.685747611639353e-05,0.0008965935030823,85.73305313903295,0.0007543943779792,-0.0011011150231678,0.0001017438540441,,,,
0.08,0.0009114907463605,0.0019473909835094,86.84928496263231,0.0029544594231088,-0.0031650013104983,-0.0007749160541281,96452.86864152108,,,
0.0833333333333333,-0.0002987472992005,0.001122377877726,86.68973608998584,0.001043363923138,-0.0047747383125842,-0.0002835545126374,,,,
0.0866666666666666,0.0075813800417373,-0.0076845864669481,86.48792184126229,2.900138622767309e-05,0.001725847278685,0.0033423171060704,,,,
0.09,-0.0050762468373947,3.254788307621774e-06,86.28112697319932,0.0011469383230502,0.0013469687013257,0.0002600033233088,96451.7400198992,,,
0.0933333333333333,0.0015370424631688,0.0010786339762794,86.08746185116254,0.003658611999814,-0.0022957195545682,-0.002439193352148,,,,
0.0966666666666666,0.012784096096514,-0.0016330502488209,85.8835591379462,0.0014277885412274,-0.0017993839226868,0.0012079317645,,,,
0.1,0.0070391737455061,-0.0007871222013555,85.67694884659319,0.001999835494531,0.0010270982982246,-0.0016705634467385,96453.78234297984,33.498595997467774,-99.33764328862564,430.63302846929207
0.1033333333333333,0.0070973310005321,0.0037565610144902,85.5083246063728,-0.0009614738735442,0.004572621831916,0.0023850174161371,,,,
0.1066666666666666,0.0013617861716651,0.003952473273806,85.3384673103881,-0.0009669631339132,-0.0035631077629453,-0.0002651538707037,,,,
0.11,-0.0019564081342936,-0.0024356907851889,85.16862928088271,0.0028820851369712,0.0029352397810884,-0.0019240764831098,96449.91304148408,,,
0.1133333333333333,-0.0002458071757014,-0.0049052897916867,85.01175598627195,0.0006469184242097,-0.0017045473822025,-1.8120857519897893e-05,,,,
0.1166666666666666,-0.0024664842603421,0.0022045920340577,84.85459464050709,-0.0016051950647269,0.0026562456162148,0.0001224525778502,,,,
0.12,-0.002571128297758,-0.0051688163864961,84.69458253011116,-0.0025822197951583,0.0001959343248018,-0.0007720884690392,96449.08261278244,,,
0.1233333333333333,0.0002672517901714,-0.002306127962722,84.5967517449065,0.0028587237956051,0.002008511734726,0.0014916945318289,,,,
0.1266666666666666,-0.003894516333147,-0.0059956002184891,84.50178533695998,-0.0025743507318633,0.0017824435819669,-0.0016851148063859,,,,
0.13,0.0004393280910289,-0.0061981403083251,84.4092672943526,0.0013252991149794,-0.0032374550042582,0.001414962324226,96447.72235805327,,,
0.1333333333333333,0.0052007495059491,-0.0009188913591143,84.3087691386018,-0.0015538366484501,0.0023710568136818,0.0010134592481495,,,,
0.1366666666666667,-0.0087915173199721,-0.0065395255198389,84.22296268627356,0.0020346809484097,0.0010275595795399,0.0026343178016478,,,,
0.14,0.0042747159023058,0.0032604424356153,84.13520312839123,0.00087437234302,-0.0002346577621247,-0.0012763129006057,96448.70026864816,,,
0.1433333333333333,-0.0064184696967343,0.0077118397205654,84.13371623131226,0.0031710372074222,-5.709851985838962e-05,1.8754193490288103e-05,,,,
0.1466666666666666,0.0028253520992863,0.0114142930353436,84.13233986281936,-0.0003808848674636,0.0008203981580561,0.00471594171187,,,,
0.15,-0.0025766058449477,0.0081809550793525,84.13274615443406,-0.0017983789068309,-0.0014674655678618,-0.0010452704964367,96444.22964248492,,,
0.1533333333333333,0.0038633924067247,-0.010865748961253,84.12811774449754,0.0019661415065554,0.0029918613296527,-0.000327839196369,,,,
0.1566666666666666,0.0035513412799476,-0.0026730634077388,84.1279822377303,-0.0020494495110239,-0.0004498052727893,-0.0008397893547176,,,,
0.16,-0.005575237652187,-0.0005827536566321,84.12891273005505,-0.000553514460418,0.0009528123671434,-0.0007805761142488,96444.82429821033,,,
0.1633333333333333,-0.0014904640535044,0.0038157797426989,84.1723005495731,0.0006766377373902,-0.0003878040839224,-0.002634050689284,,,,
0.1666666666666666,-0.007708474745448,0.0036257895509014,84.2140647236804,-0.001104720942851,-0.0035648031356584,-0.0003401599253039,,,,
0.17,-0.0015730696563133,0.0048433500282181,84.26517048127364,-0.0015741022275562,-0.0005506063399449,0.0043594528125159,96440.99450363412,,,
0.1733333333333333,-0.00013859918913,0.0083309809268037,84.30066025449084,0.0013371353628855,0.0018465745285193,-0.0026555130383169,,,,
0.1766666666666666,-0.0198429209838248,-0.0029151657048951,84.33852432733833,-0.0021461838963975,0.0018382724128983,0.0013226383765978,,,,
0.18,-0.0063009225318962,0.0004533484836361,84.37996368236735,0.0012017717668744,-0.0003202772431273,-0.000239252727158,96441.92954819094,,,
0.1833333333333333,0.0020550316151999,-0.0052502779457336,84.38938848531313,-0.0021955822122629,0.0006154996076989,0.0016555761024134,,,,
0.1866666666666666,0.0057549034196466,-0.0009798726456608,84.37675604260934,-0.0001272379560995,0.0011927031092953,0.0012496949413227,,,,
0.19,0.0051727076699324,0.0056510820132034,84.3699916635234,0.001608284715248,-0.0005510308589537,0.0003684885668513,96439.62463292066,,,
0.1933333333333333,0.0174704845627841,-0.0150881492656687,84.365401531924,0.0023966861646833,0.003399217132058,-0.0002401582317379,,,,
0.1966666666666666,0.0009583442567195,-0.0091236080633293,84.35474410979394,0.0004850344765706,0.0020744154380632,0.0005532583063109,,,,
0.2,0.0018769697463918,0.0020131586265079,84.35661043877994,0.0027100036579231,0.0016336000975707,0.0037256065409664,96437.09194231224,33.498605536024115,-99.33766303123622,422.17779392903714
0.2033333333333333,-0.0109152996231583,-0.0072856902907893,84.3458345365651,-0.0008672013113796,0.0001451968754394,-0.0005121235467469,,,,
0.2066666666666667,0.0031617773559483,0.0049972198119683,84.3623494835989,0.0025197602131862,-0.0008920552868358,0.0002553299165292,,,,
0.21,-0.0011750377086414,-0.0089324254509457,84.38543258459217,-0.0010713880914688,0.000845688343395,-0.0008879608346049,96435.44810824492,,,
0.2133333333333333,0.0073836326018318,0.0041553115356158,84.38599018494698,0.0008688430250135,-0.0019954482114065,0.0033842104393972,,,,
0.2166666666666666,-0.0008113371888645,0.0023029641240254,84.40243858795101,-0.0012383513681353,0.0003608352483792,-0.0011004569349268,,,,
0.22,-0.0044189416575053,-0.0007656227091752,84.41355324028594,-0.0006802188975622,0.0027696396944282,0.0016995685669503,96433.669320324,,,
0.2233333333333333,0.0004807078253223,0.0015892780879883,84.42554253129305,-0.0010962190326788,0.0034857395525919,0.0029368126045123,,,,
0.2266666666666666,0.0044753878138142,0.0014390122646283,84.4387974516817,-0.0005937152143305,-0.0014164099827177,0.0019357279022098,,,,
0.23,0.0013313034631619,-0.0036648991380287,84.46278126405643,0.0043997883133674,0.000321544709603,0.0027776062385176,96433.10263582451,,,
0.2333333333333333,-0.0053683935422696,0.0018675861781205,84.46302110388052,0.0011444070008261,-0.0020633647856855,0.0030836211635993,,,,
0.2366666666666667,-0.0046759234269693,-0.0093414175227465,84.49369109733837,0.0019728757847931,0.0020998757281933,-0.0005169429797703,,,,
0.24,0.0078145491921511,-0.0080649035660502,84.50035906044621,0.001182839774226,-0.0001436006484134,0.0015868769879312,96430.78441525248,,,
0.2433333333333333,-0.0019546358789443,0.00759750015925,84.51847742710532,0.0001264695444626,0.0010130583303778,-0.0019335864267862,,,,
0.2466666666666666,0.0037223172729756,0.0011676049569864,84.52872784885037,0.0006012508842447,-0.0027328765215574,-0.0004757084341082,,,,
0.25,-0.0087317565340955,0.0093150649709177,84.54973003765461,0.0011986751407009,-0.0011121569066659,0.0019004981019029,96428.08335075896,,,
0.2533333333333333,0.0074196401674376,-0.0027419280944396,84.54805682038217,-0.0006576416382561,0.0010343163130638,-0.0014901326697615,,,,
0.2566666666666667,-0.0052577623064417,-0.0022468365025316,84.56979828722804,-0.0005681014344171,0.0010512143795579,0.0014802557311054,,,,
0.26,-0.0064502309349267,0.0050920842934659,84.5876987610172,0.0009784598093323,0.0016023718226766,-0.0012995621389742,96423.90400372472,,,
0.2633333333333333,-0.0022127100864304,-0.0044303694867848,84.6236719672155,0.0005608265967475,0.0016186680818699,0.0006587238344872,,,,
0.2666666666666666,0.0033829634418463,0.0046526112151719,84.69083090961864,-0.0027347948487574,0.0014364894275016,-0.0008347474225772,,,,
0.27,-0.0077075626678121,0.0019912860851903,84.72458119246397,0.0014163723849215,-0.0015765800933708,0.0004036161522053,96421.85032945388,,,
0.2733333333333334,0.0039203981945692,0.0017323629227779,84.78100535342058,0.0042292871591489,0.0034442820142217,0.0009871522430263,,,,
0.2766666666666666,-0.005150525830204,-0.0089217314656033,84.82562301636563,0.0021013825620443,0.0016530900789291,-0.0010496935881762,,,,
0.28,-0.0015239646764788,0.0016620101820188,84.86815276068201,-0.0001216501767208,2.088072247209551e-05,-0.0014852572403455,96420.26729952768,,,
0.2833333333333333,-0.0060912590877836,-0.0018146755812519,84.92512019011686,-0.002575048266507,-0.0004778837785874,-0.0003244274600449,,,,
0.2866666666666667,-0.0026896665807222,-0.001961575376948,84.97715195205413,-0.0011571176554882,0.0025821714568853,0.002064829146862,,,,
0.29,0.0080570649441825,-0.0065145882488608,85.02416608736354,0.0018201749976939,-0.003931486911698,0.0014112541911802,96416.08197873968,,,
0.2933333333333333,-0.0004900375212397,-0.0111389143182991,85.08314871448218,-0.0020782786297155,0.0045455763294698,-9.174654754462192e-05,,,,
0.2966666666666667,0.0004155380579075,0.0026014587606036,85.12895565854579,-0.000127410259104,-0.00205665771049,-9.589615771445344e-05,,,,
0.3,-0.0027332298666462,-0.0007301531720976,85.18004006453165,0.0016903163946145,-0.0036464628978768,-0.0007550754593124,96412.5547277566,33.498591543783604,-99.33759743465636,417.69420079151473
0.3033333333333333,-0.0054344372914284,-0.003845603478048,85.2295425095767,0.0015909283674578,0.0004387385915893,-0.0030165838622623,,,,
0.3066666666666667,-0.0023323141004285,0.0002499925501629,85.27667301903503,-6.725821381505386e-05,-0.0010920355341411,-9.519043398592452e-05,,,,
0.31,0.0038771814944413,0.0050354583403253,85.32112008787752,0.0034680666368994,8.582393093039409e-05,-0.0016698476106729,96410.14197398268,,,
0.3133333333333333,0.0040336238493673,0.0082474177647067,85.3734199748622,-0.0005629767232034,0.0020950432334569,0.0013820227317496,,,,
0.3166666666666667,-0.0058204818319476,0.0065192004196174,85.42880161163319,-0.0008279485127931,0.0005732781880586,-0.0004450233650272,,,,
0.32,0.0026663930605298,-0.000511040421082,85.47245826922432,0.0015913996467914,-0.0003974768193175,0.0015815382058651,96404.43638818312,,,
0.3233333333333333,0.0025354973379211,0.0139800135017659,85.5244576579854,0.000862708528108,0.0011286734931339,5.569618816174807e-05,,,,
0.3266666666666666,0.0062942058546083,0.0077525150794478,85.56408226595929,0.001532954648704,-0.0010929100720543,0.0018054204904866,,,,
0.33,0.2540885361815881,0.1476432599216015,85.60982256161576,0.0015550529628823,-0.0016437070380787,0.0013962961659922,96402.9128414058,,,
0.3333333333333333,0.2609845895929025,0.1455890924374049,85.65334941624167,0.0002228078816235,-0.0021979674600872,-0.0023665157927384,,,,
0.3366666666666666,0.2570297515911251,0.1474376431684634,85.70780665335533,0.0002742643159487,-0.0039675418763718,-0.001190175679217,,,,
0.34,0.2640375763621831,0.1626894142104738,85.75826753804496,-0.0031114086943972,-0.0052887633319232,-0.0051093335867285,96400.7593046372,,,
0.3433333333333334,0.266609821050397,0.1609486439964008,85.78974943505466,0.0021165699363173,-0.0065959936333808,-0.0002932080303016,,,,
0.3466666666666667,0.2639552412586715,0.1675050072283745,85.83535100877936,0.0021123637789002,-0.0081083304211582,0.003604663171267,,,,
0.35,0.2667598293877169,0.165013711652812,85.86405420174208,0.0009956953047725,-0.0105582612626381,-0.0004079014020339,96395.01880771562,,,
0.3533333333333333,0.2680872269888879,0.1629623154364954,85.90281728377933,0.0017706598407398,-0.0080543117120871,-0.0015272316348615,,,,
0.3566666666666667,0.2738717261945911,0.1576526068582161,85.92802030022573,0.0047097013806137,-0.0132783827619104,-0.0013310592828693,,,,
0.36,0.270608539359422,0.1680365504235488,85.97270625702825,0.0030320415958041,-0.0148699095729757,-0.0021455929669396,96393.68416809436,,,
0.3633333333333333,0.267308211537068,0.1630783704769695,86.00264218453279,0.0053690097455233,-0.017841306446148,-0.0012503340786173,,,,
0.3666666666666667,0.2770800947058591,0.1687462644263822,86.05077506264024,0.0052817673298037,-0.0192052347398078,-0.0013342091920019,,,,
0.37,0.2703574791616067,0.1713258035422865,86.09330024356252,0.0035819306917519,-0.016686290608357,-0.0014764199679218,96389.7527261816,,,
0.3733333333333333,0.2706852573668541,0.1749133937089175,86.13406945681074,0.0023442512040317,-0.0179205791679482,-0.0007028247188183,,,,
0.3766666666666667,0.2861804636991948,0.1716384393240486,86.17378677170039,0.0088972046738615,-0.0206686573335367,-0.0013859072249269,,,,
0.38,0.2841184232697504,0.1783527451939975,86.20235916680694,0.0054311017709176,-0.021391648310836,-0.0026646401575438,96385.6869772318,,,
0.3833333333333333,0.2730802270881131,0.167218990823013,86.26863157639677,0.0042843985839862,-0.0233041763542958,-0.0011163703202564,,,,
0.3866666666666667,0.2878105272373529,0.1698038418876519,86.31532537610529,0.004903889702418,-0.0240884301347936,0.0005764591668596,,,,
0.39,0.2739679294910758,0.1717522719292007,86.36146464045015,0.00842722135681,-0.0270458970178563,0.0006481648538288,96382.36182467132,,,
0.3933333333333333,0.2727951403056599,0.1689478350740523,86.41077840429672,0.0069618324364761,-0.0280900649396876,0.0007538110604773,,,,
0.3966666666666666,0.2761275272640957,0.1760245046095327,86.46043370118119,0.0085652821616397,-0.0309538122055015,0.0002397049904257,,,,
0.4,0.2760430373256918,0.1673467526306608,86.5262955694685,0.0065441507857275,-0.0353344095242731,0.0060988572095657,96377.50271737778,33.498634894657066,-99.33756533894646,422.71849081903054
0.4033333333333334,0.2795080025171775,0.171363653350239,86.61916655197845,0.0066314966289238,-0.0316868283069176,-0.0012776370671501,,,,
0.4066666666666667,0.2817472275520529,0.1699572700191494,86.73320854181092,0.0089842880270124,-0.0381055265438608,-0.0004884816781709,,,,
0.41,0.2819279171621215,0.1863692283838796,86.84826856653652,0.0077267334535844,-0.0378424573941814,-0.0002514064584344,96374.4120935253,,,
0.4133333333333334,0.2753089277356311,0.1651213900846459,86.97398390144278,0.0059071690976814,-0.0389327696847753,0.0001942271415264,,,,
0.4166666666666667,0.2689752760741096,0.1825821717084901,87.08362762366279,0.0065379099350028,-0.0366647294234567,0.0020548274115214,,,,
0.42,0.2735286666306822,0.1656954374826561,87.19403863144638,0.0116244180211613,-0.0435171029606623,-0.0005927935542392,96369.28274165484,,,
0.4233333333333333,0.2757828782143419,0.1803237832874975,87.26056713413396,0.0058100009007386,-0.0438190586634202,0.0008658618198575,,,,
0.4266666666666667,0.2687679089902292,0.1781760224400878,87.29088688292408,0.0122832116251155,-0.044495045249825,-0.0027960682115649,,,,
0.43,0.2708358314272165,0.1695439968697269,87.33504474459201,0.0106434427603295,-0.0452225639477444,0.0005158649646417,96366.47131174916,,,
0.4333333333333333,0.2606072891209842,0.1725192887955009,87.37223675345936,0.0108647356412375,-0.0481460808810315,0.0005963014885989,,,,
0.4366666666666667,0.269791947489351,0.1755654624467323,87.40643206522509,0.0099068844660964,-0.0517540524160978,-0.0010612263513716,,,,
0.44,0.2628975697222856,0.1684019675283344,87.44162544872269,0.0095704215012408,-0.0510642616336462,0.0005190336539825,96359.90062575258,,,
0.4433333333333333,0.2604611256843267,0.1693300729946278,87.49531627245382,0.0112207729198932,-0.0546009462894594,0.0023470413074521,,,,
0.4466666666666667,0.2627116166694171,0.1767567034312702,87.55834048163096,0.014218254721944,-0.0554629866859987,-0.0015720281843295,,,,
0.45,0.2501376301056124,0.1719880079963474,87.61482679396786,0.012650750885549,-0.0548666741291432,-0.0021878414419439,96355.56678834454,,,
0.4533333333333333,0.2548820577253374,0.1635612347096911,87.66452608659137,0.010535365129897,-0.0616555612850707,0.0023360779639039,,,,
0.4566666666666667,0.2496022796799883,0.1662931985215812,87.71384845008349,0.0103181541917879,-0.0597611396579908,-0.0001107390563221,,,,
0.46,0.2426849923880143,0.1719813888115212,87.77767115768704,0.0112337357238425,-0.0596286197802938,-0.0026402042354674,96350.14023934558,,,
0.4633333333333334,0.2428858117870689,0.1679453376224612,87.81484518118204,0.0126731844172064,-0.062795210828114,-0.0028519835462291,,,,
0.4666666666666667,0.2522669063232208,0.1672097513451848,87.85945495767228,0.0137386510148176,-0.0642390081409589,-0.0032699992624362,,,,
0.47,0.2421508095999941,0.1601652487605184,87.88346914357648,0.0153051045815385,-0.0648861628302062,0.0024304305334454,96346.47786188003,,,
0.4733333333333334,0.2266650956382173,0.1566605100643762,87.9378691865599,0.0148812228769023,-0.0685268358635056,-0.0006505065290532,,,,
0.4766666666666667,0.2203683879104989,0.179148082859699,87.97349989596391,0.0121904873903086,-0.0714377526388319,-0.0028242104014512,,,,
0.48,0.2128982037650711,0.154209972422255,87.98947506084467,0.0145042465980474,-0.0707396047485897,-0.0026531180835058,96343.16319368294,,,
0.4833333333333333,0.2165957144348824,0.1571871772187011,87.98713088606172,0.0137791227485967,-0.0730985181113973,0.0028773531348717,,,,
0.4866666666666667,0.2133469721422206,0.1580070067312849,87.95475899173233,0.0144647742388562,-0.0726868606390792,-0.0002931237159578,,,,
0.49,0.2073650858216382,0.1680884766079492,87.92956587080349,0.0168729579578389,-0.0761351829614314,-0.0010938415723811,96337.30764854013,,,
0.4933333333333333,0.2078334143532658,0.1470831747641309,87.90942958594867,0.0158789649407366,-0.0775605097295858,0.001072005526215,,,,
0.4966666666666667,0.194770149496141,0.1563799869194903,87.88694421072469,0.0191662375718468,-0.0796460993356351,0.0019316504622032,,,,
0.5,0.1941495949302873,0.1543556161766471,87.85647576483245,0.0174509962777131,-0.0819992786845485,0.0024346998163764,96332.11200613291,33.49866179951081,-99.33760297539403,433.1643349954984
0.5033333333333334,0.1843348349635204,0.146921236807469,87.9185804923011,0.0181255051191877,-0.0810259797410873,0.0023990329075588,,,,
0.5066666666666667,0.1858089243732585,0.1368791636761127,87.99070589300067,0.0159071637915366,-0.0869965322063608,-0.000722665753809,,,,
0.51,0.1615702904086641,0.1386735082824195,88.06392409647674,0.0183196052360419,-0.0893336606142488,0.0035441452969689,96325.64433864992,,,
0.5133333333333334,0.1591135064891789,0.1387797121452989,88.15071946772412,0.0178151985825328,-0.0889443952562222,0.0034746466806911,,,,
0.5166666666666667,0.1603677058787899,0.1381193639379414,88.22778377968187,0.0184341352479122,-0.0895792671301654,-0.0009317226520685,,,,
0.52,0.1475203420272509,0.1406232008773424,88.30202191774826,0.0190266074131768,-0.0906845888294524,-0.0030883467667421,96321.08375133554,,,
0.5233333333333333,0.1390602882582133,0.1317548455270012,88.37311770136304,0.0164086276022061,-0.0912758927990212,0.0024541292374818,,,,
0.5266666666666667,0.135063147695151,0.129243808391027,88.43180437906946,0.0184253747123233,-0.0944253342802937,0.000447860947069,,,,
0.53,0.1204985605832921,0.132932313412877,88.51251002551605,0.0213065723523762,-0.0917241488766216,0.0013462924405944,96315.41779038608,,,
0.5333333333333333,0.112989912616214,0.1154165091385206,88.58534121932911,0.018040583597036,-0.0944241535929118,0.004786813129713,,,,
0.5366666666666667,0.111437013768494,0.1204930519133994,88.63677701144,0.0170274302011989,-0.0989040088455559,-0.0022975544567229,,,,
0.54,0.0951715270833021,0.1177580338040447,88.71466450362571,0.0192080149733745,-0.0986814659465663,-0.0011669971330596,96309.0667526186,,,
0.5433333333333333,0.0856363255979381,0.1159786216689794,88.79382521727418,0.0218215515526729,-0.099034290422438,-0.000181014365942,,,,
0.5466666666666667,0.0839962118937468,0.1005710115669609,88.87612057944916,0.0196666010867191,-0.102663616077191,-2.4485278811461877e-05,,,,
0.55,0.0681472349487721,0.1111785617251641,88.95306113692665,0.0199110870778481,-0.1015821248107378,-0.0019963346668779,96302.74966015982,,,
0.5533333333333333,0.0687934411422712,0.1041477863831801,89.04673225090352,0.0201853276148403,-0.1047519771751155,-0.0009023626184848,,,,
0.5566666666666668,0.0496122713665207,0.0983228373340566,89.11989926441963,0.020145835962446,-0.1064202726483816,-0.0011650065217909,,,,
0.56,0.0420276442767102,0.1000630843362006,89.19851154627806,0.0224836972184597,-0.1063111587836908,-0.000467535341245,96296.67141935242,,,
0.5633333333333334,0.0279638267668741,0.1003999786010418,89.2733558658205,0.0229565730489395,-0.1085858881587479,-0.0020217978507111,,,,
0.5666666666666667,0.012930170554142,0.0878033864559813,89.34120781078012,0.0209551668013678,-0.1096281315880112,-0.0010151218360677,,,,
0.5700000000000001,0.0130453550702633,0.0840296588883765,89.41389780362337,0.0211169922880048,-0.1135054194726008,0.0001499097114081,96292.61304120944,,,
0.5733333333333334,-0.0012704946844342,0.0787088366302897,89.46951283507558,0.0210970468242189,-0.1151366120994865,0.0022043221563377,,,,
0.5766666666666667,-0.0117283927608239,0.0821680545530868,89.53578576989462,0.0251514945559272,-0.1111238739750553,-0.0015033191828982,,,,
0.58,-0.0299051776737711,0.0687997087785563,89.6059595508502,0.0241171279617605,-0.1137355470509705,-0.0024369827545396,96285.27999263932,,,
0.5833333333333334,-0.0463247960633283,0.0716412499615226,89.663380724114,0.0244115307088305,-0.113847203710768,-0.0003490283779613,,,,
0.5866666666666667,-0.0575377387077825,0.0613414118301943,89.7249616722327,0.022987325577082,-0.1207968421486615,0.0022482698511451,,,,
0.59,-0.0704200117996049,0.0503700979581284,89.77525097802773,0.0221844651615616,-0.1186399421092434,-0.0009052635669138,96280.3064430707,,,
0.5933333333333334,-0.0809290295818327,0.0583651813999719,89.83143333905372,0.0239217712303814,-0.1184900487620922,0.0037147305946591,,,,
0.5966666666666667,-0.0886757541756802,0.0483124803425748,89.88842226933897,0.0231123937989729,-0.1195140269171812,-0.0008239614465668,,,,
0.6,-0.1061889080978045,0.0441931231917487,89.92152890733769,0.0222357618780711,-0.1209797867028054,-0.0009571252769231,96274.792050165,33.498622175446066,-99.33761030517474,432.757674889273
0.6033333333333334,-0.1187476917072782,0.0378082339525306,89.97932203386355,0.0242914910019922,-0.1228214428989809,0.0005707286222948,,,,
0.6066666666666667,-0.1318260238294522,0.0259629679182383,90.02960671001172,0.0268891007257736,-0.1232413965666009,0.0026304760760903,,,,
0.61,-0.1406737677604504,0.0276830158092151,90.07986593865677,0.0241378194490124,-0.1208982676612826,-0.0006967661977474,96267.26215691416,,,
0.6133333333333334,-0.166390928073453,0.017697733530062,90.11199925784264,0.0251851459309017,-0.1259977825491759,-0.0008970211488241,,,,
0.6166666666666667,-0.1740029620544899,0.0126360901008625,90.18150150051486,0.0243953757531659,-0.1267048428495369,0.0020686499354544,,,,
0.62,-0.1982916995374132,0.0124252340683198,90.22024271408613,0.023407498270259,-0.125446535033819,-0.0014842277606133,96261.9530058854,,,
0.6233333333333334,-0.1997593889177037,-0.00172626984669,90.28100029864974,0.0250944460097461,-0.1265609840151308,0.0004532486001525,,,,
0.6266666666666667,-0.2164498358601843,-0.0101443290260639,90.34488462319472,0.0260482682794196,-0.1267496064271053,-0.0002491964902709,,,,
0.63,-0.2411389413543367,-0.0104446069953321,90.4136834031394,0.024352341131409,-0.1269983858646681,0.0013736125806574,96253.99262462337,,,
0.6333333333333334,-0.2480613720024499,-0.0170896804496578,90.46114325986544,0.0225045566221891,-0.1288319437102031,0.0019488375670701,,,,
0.6366666666666667,-0.2666602458371236,-0.0193410828845094,90.53844072057744,0.0251751889166358,-0.1277313856392134,0.0025473635504108,,,,
0.64,-0.2861320863744756,-0.0291507707876909,90.59523917278216,0.0260925989688677,-0.129717419884744,-0.0015611523479282,96248.8691267171,,,
0.6433333333333334,-0.3014618631578817,-0.0431822117541084,90.66936088441317,0.0267957966950309,-0.129222814907517,0.0004747406828163,,,,
0.6466666666666667,-0.318459935544215,-0.0425700908211782,90.760995394538,0.0276516602612437,-0.1284556685421056,0.0030873392941276,,,,
0.65,-0.3310426946850996,-0.0455272412091819,90.846696330185,0.0254421036277839,-0.1285339476313092,4.244039080552764e-05,96241.04800553872,,,
0.6533333333333333,-0.3508366616162623,-0.0537108107696886,90.93518212555996,0.0260979289292025,-0.1272366435075042,0.0005626623017243,,,,
0.6566666666666667,-0.3651675937694854,-0.0568924484760182,91.02172472621729,0.025684284561909,-0.1344521515949651,-0.0017314819717354,,,,
0.66,-0.3862090200901323,-0.0660040277915766,91.10415059073831,0.0238094046408011,-0.1306082661490701,0.0006038344135308,96232.24934933805,,,
0.6633333333333333,-0.4047817024149438,-0.0753304449567196,91.20929195812964,0.0225480026263779,-0.1277374706496034,0.0008779694552487,,,,
0.6666666666666667,-0.4096970974707171,-0.0783827031646782,91.30587716735586,0.0251961570733581,-0.1316695440534415,0.0029901558543296,,,,
0.67,-0.4374865655531685,-0.0914908960364857,91.39515660432534,0.0279842049059997,-0.1320061754788944,-0.00076162004789,96226.07407038614,,,
0.6733333333333333,-0.4584657524946837,-0.1026972214936819,91.49662228222638,0.0312496423145256,-0.129716477698421,-0.0014642759301616,,,,
0.6766666666666667,-0.468603268020563,-0.1046923243307055,91.59438389246108,0.024402506386745,-0.1307733558292161,0.0002759178081489,,,,
0.68,-0.4963667910028684,-0.1127393761061942,91.68621674790268,0.0255225569356054,-0.12892011269574,1.569657632680644e-06,96216.75536732086,,,
0.6833333333333333,-0.5102445357016144,-0.1192099720626575,91.80222424912527,0.0259602616940052,-0.1319095987360241,0.0014574049194679,,,,
0.6866666666666668,-0.5272438226386589,-0.1220074684369076,91.90582467275604,0.0244898684217993,-0.130068792449207,-0.0003532182071063,,,,
0.6900000000000001,-0.544661881640785,-0.1380218039989608,92.02954208181352,0.0228663405440698,-0.1289302284530976,-0.0014326355777188,96211.6608921472,,,
0.6933333333333334,-0.5543898652565807,-0.144218219726286,92.12746054816702,0.0248764291208661,-0.1307070787525427,-0.0014206146829646,,,,
0.6966666666666667,-0.5751839789747787,-0.146914944343981,92.24193244116948,0.0264933042790725,-0.1316208425778294,0.0011645286786789,,,,
0.7000000000000001,-0.6027686630347597,-0.1502414557567145,92.3599323760281,0.0264344843725035,-0.1267155572008833,-0.0032932350942494,96203.48953405698,33.4986292256184,-99.33766608487105,439.92227311811087
0.7033333333333334,-0.6277904666358927,-0.1629756379781551,92.4777422823303,0.0226021820444245,-0.1279940075781745,0.0014685514066788,,,,
0.7066666666666667,-0.6383204186498814,-0.1699566212236369,92.60717163593915,0.0261254298233991,-0.1285500270754292,0.0025884467853224,,,,
0.71,-0.6565877336828537,-0.1760831250143948,92.73219876900544,0.0238620404475784,-0.1248502293817649,0.0040490201678971,96196.01035656096,,,
0.7133333333333334,-0.6682319691120147,-0.1923074883043385,92.85400208507704,0.0268009898286685,-0.1250389932423127,0.0011459784494395,,,,
0.7166666666666667,-0.6831377170866075,-0.1917998149628687,92.97452997537712,0.0252510108558082,-0.1255675696461962,0.0021745800072086,,,,
0.72,-0.7050526533822443,-0.2063928062378662,93.0899381918304,0.0245627611973504,-0.1262708695231547,-0.0007913253361945,96187.56388413683,,,
0.7233333333333334,-0.7371035751320507,-0.2099845658784737,93.2288748132684,0.0224403192248688,-0.1243058550121176,0.0004997446020654,,,,
0.7266666666666667,-0.7467667106664175,-0.2130717901325531,93.35690791095077,0.0237069194642696,-0.1228247238458552,-0.0013747495792888,,,,
0.73,-0.7687747806352013,-0.2244636846991108,93.48129506048942,0.0208346252310289,-0.1237973005171043,-0.0004201344713868,96180.84783862096,,,
0.7333333333333334,-0.7779239543890282,-0.2348120220573282,93.62442604171132,0.0248431126520911,-0.1226496865426518,0.0010375343543204,,,,
0.7366666666666667,-0.8010563510608948,-0.2414661059591938,93.750759908144,0.0221805786629755,-0.123060011974003,-0.0005599340467042,,,,
0.74,-0.8193476960873471,-0.2478440170298365,93.89383973848209,0.0228888804961211,-0.1195454866945817,-0.0032973628549045,96172.3104652767,,,
0.7433333333333334,-0.8351890951836708,-0.2555803810110773,94.0246357373173,0.0212438746931035,-0.1225145625449563,-0.0008357055047368,,,,
0.7466666666666667,-0.8539504387427219,-0.2722171525390651,94.1608042050116,0.0257944744033454,-0.1178936188396171,-0.0021132014672995,,,,
0.75,-0.8758792154880237,-0.2786012356850898,94.30719531296126,0.0225719942231051,-0.11609003514778,0.0008322781928794,96163.75892881137,,,
0.7533333333333334,-0.9038628377809036,-0.2776531665810159,94.43526560428776,0.0206816272629944,-0.1115793068890876,0.0027677491863131,,,,
0.7566666666666667,-0.9084758752212144,-0.2898567370359833,94.58823788617916,0.019689107533785,-0.1161598827196261,0.0025469806060421,,,,
0.76,-0.9303494863414374,-0.299087651852317,94.72661629562369,0.0236570255423987,-0.1134606136670535,-0.000204319573211,96155.84972440498,,,
0.7633333333333334,-0.9464195866403984,-0.3120083603905464,94.8603272865332,0.0191209315971189,-0.1100609313974833,0.0023066362004888,,,,
0.7666666666666667,-0.9613074050914364,-0.3028164608191549,95.00124902222912,0.01752438182568,-0.1082448129526457,0.0016757198858626,,,,
0.77,-0.9855231972302262,-0.3279935089389472,95.1362415042637,0.0200800863837213,-0.1094961606675462,-0.0004404980418392,96148.30195311274,,,
0.7733333333333334,-0.9973238841701318,-0.3200784965912201,95.27583936080109,0.0168888869908726,-0.1107955967149172,-0.0019834590083147,,,,
0.7766666666666667,-1.0185600648166924,-0.3313839402701979,95.4102177208312,0.0169812234173138,-0.1025134920063039,0.0004794765260088,,,,
0.78,-1.036335733742,-0.3383236906685525,95.55380460947744,0.0172033681195695,-0.1019797456828867,-0.0009062953106647,96140.51649618024,,,
0.7833333333333334,-1.0583195839034722,-0.3532890214334808,95.68583271945624,0.0187720721910267,-0.1008347134997279,0.0002749956584734,,,,
0.7866666666666667,-1.0778400998839863,-0.3611593051899296,95.82628997857766,0.0168694498709388,-0.1000359715975526,-0.0018305662971303,,,,
0.79,-1.0820013098050727,-0.3594582093106225,95.95056256895728,0.019933697146636,-0.0966211364211818,-0.0027386404452728,96132.68950149558,,,
0.7933333333333333,-1.1098243956223328,-0.3711873702605924,96.07855854136396,0.0143791971145194,-0.0954498276454028,0.000819641279795,,,,
0.7966666666666667,-1.120813143554859,-0.3895329027980969,96.22151800801552,0.0205991154992361,-0.0953604957984664,0.0002596874240753,,,,
0.8,-1.1360932932727608,-0.3750636957193123,96.35474386606798,0.0148495397944905,-0.0919751890294176,0.0003173208992521,96123.19184263948,33.498596014445305,-99.33752924984942,452.3380648713249
0.8033333333333333,-1.1596283692070313,-0.3898206214663213,96.47400788304184,0.0135642737803696,-0.0903112934695502,0.0019634680694306,,,,
0.8066666666666668,-1.1656667193242132,-0.3945754097147633,96.58336946917228,0.0125849270515175,-0.0852875714101108,-0.00216671145245,,,,
0.81,-1.1893149609055145,-0.3933586551632284,96.69505136717856,0.0170725415279916,-0.0851430507533971,0.0004637642655284,96114.80698168695,,,
0.8133333333333334,-1.208168487642507,-0.407683994196175,96.81843686130324,0.0150773651072947,-0.0823547641562707,0.0007158013438659,,,,
0.8166666666666668,-1.2151724214845183,-0.4001239668319516,96.92431242766484,0.0130458460831172,-0.0808580899380732,-0.0012910022824454,,,,
0.8200000000000001,-1.227929280682649,-0.4151953291901596,97.0416754281304,0.0109088820328269,-0.0773683315401417,0.0002910916903619,96105.80407380438,,,
0.8233333333333334,-1.2429898722494566,-0.4257361750023232,97.13632242338127,0.0124286757344989,-0.0756832851088492,0.0025635530422317,,,,
0.8266666666666668,-1.2548186186718526,-0.4319131658189162,97.24032058669069,0.0085598318003376,-0.0736466282497765,-0.0021695366301719,,,,
0.8300000000000001,-1.2718685818853683,-0.4348982723241383,97.32678714068808,0.0115800316844551,-0.0712328366181824,-0.0006741339248865,96095.9493324186,,,
0.8333333333333334,-1.284298244965268,-0.4408164260697347,97.42829042273203,0.0123352169131892,-0.0691973779126897,0.0002488855901896,,,,
0.8366666666666667,-1.2908573572335074,-0.4370942954989594,97.52203345117243,0.0084914712476808,-0.0628229929149582,0.0010271123095665,,,,
0.84,-1.3105843676281077,-0.4445513482768694,97.61802321511296,0.0079065328322869,-0.0647765769023508,0.0002391389557834,96087.31018434204,,,
0.8433333333333334,-1.3231940681398056,-0.4540224866873079,97.69651746350912,0.0106122160284914,-0.061068706468366,-4.088668648854074e-05,,,,
0.8466666666666667,-1.3342357806910492,-0.4471394606759168,97.7964553304508,0.0093295711778497,-0.0570537087571858,8.79358558986747e-05,,,,
0.85,-1.3449275552246278,-0.4629616523905092,97.87047383506096,0.0048721207724992,-0.0571028015407528,-5.636637713327251e-05,96078.92951606643,,,
0.8533333333333334,-1.349894268247278,-0.4564211007253209,97.94001217761956,0.0083403824854243,-0.0505627763775976,0.0016980647146307,,,,
0.8566666666666667,-1.3550650323192963,-0.4612235389601015,98.03248081686672,0.0079291181228327,-0.0495869752691478,-0.0007080091901115,,,,
0.86,-1.3682470349554032,-0.4721916906654835,98.1105050025524,0.0083167971691481,-0.0462829843382789,-0.0027637950820671,96068.36273345994,,,
0.8633333333333334,-1.3795011235462449,-0.4770475777685578,98.18956261370862,0.0068784129505473,-0.0464381325809833,0.0027102479597529,,,,
0.8666666666666667,-1.3798378446616686,-0.4763974450061444,98.2642947499414,0.0070951617325499,-0.0429575737185185,0.0012128927312838,,,,
0.87,-1.3876415245518887,-0.4751580672424721,98.3407375065134,0.0060219078332307,-0.0394801477675756,-0.0029233580738306,96058.42917830127,,,
0.8733333333333334,-1.3974853259919755,-0.4742480978052709,98.39458188944428,0.0050917579377526,-0.0351184116531726,-0.0019810813029853,,,,
0.8766666666666667,-1.393404379228047,-0.4816846277725908,98.4759138252757,0.0029390502781141,-0.0319939522361153,0.0036503914737102,,,,
0.88,-1.401383139688332,-0.4837329655234079,98.54168314147744,0.0018860907887,-0.0310680145383414,0.0016243347997047,96046.51596681448,,,
0.8833333333333334,-1.4194382572190205,-0.4900917059022506,98.6338815228483,0.0066567640778037,-0.0312817365246762,0.0003392258317053,,,,
0.8866666666666667,-1.4193220363719892,-0.4766269932084458,98.70557086786364,0.0002563438280524,-0.0295889450627891,-0.0002007793705447,,,,
0.89,-1.4195994019642382,-0.4833141884642994,98.7678867451519,0.0004790053093506,-0.0238827966113573,0.0022938641099405,96039.274397979,,,
0.8933333333333334,-1.4203109229079345,-0.4807832654785934,98.8478509694862,0.0029227007028247,-0.0233370515906981,-0.0029608073412415,,,,
0.8966666666666667,-1.4369690176300955,-0.4840177254738714,98.91179330444145,0.0023331923895345,-0.0150381409604471,0.0013357624270367,,,,
0.9,-1.435985096878504,-0.4805824201177334,98.98636699822958,-0.0018461946696479,-0.0156643833980131,-0.0001465499591213,96029.91167356384,33.49861954121496,-99.33754601475452,442.6691561588429
0.9033333333333334,-1.431568159552901,-0.4848505858789599,99.06516182035828,0.000335727251195,-0.0116428003243157,0.0025751253673767,,,,
0.9066666666666668,-1.425585106875146,-0.4853031678428222,99.14855586913946,0.0005084751456323,-0.0075990470540597,0.0022902299796072,,,,
0.91,-1.4296080733300514,-0.4833525150258133,99.21603349709773,-0.0004841015164294,-0.0077815595798457,0.0005682711949078,96018.816653275,,,
0.9133333333333334,-1.431985197747201,-0.4893423306918036,99.30034283082632,0.0014387067337847,-0.0046393001759799,0.0008382242034824,,,,
0.9166666666666669,-1.4317492810030643,-0.4843929255297013,99.374029601267,-0.0017148998281194,-0.0015333980681993,-0.000865101218698,,,,
0.92,-1.4309580326503168,-0.4736514420875855,99.4462786885482,3.3116907314211744e-05,0.0037359421042597,-0.0004746607096598,96007.90199705088,,,
0.9233333333333332,-1.4254771749283524,-0.4702695685014772,99.52500743942164,-0.0030777488329877,0.0062970541657617,0.0033498525154897,,,,
0.9266666666666667,-1.4167277187632903,-0.4716264628532081,99.5831267222012,-0.0038599637439216,0.0083905173207955,0.000487714515678,,,,
0.93,-1.422375537831971,-0.4762956261776576,99.66101786957348,-0.0028382386793903,0.0089201948068033,-0.00097039966234,95999.08856925216,,,
0.9333333333333332,-1.4320219013470228,-0.4676266481694113,99.73754968921176,-0.0037705380486043,0.0130067135644448,-0.0018920538498602,,,,
0.9366666666666668,-1.4115002582558598,-0.4641239070800731,99.81070901350132,-0.0059056877719304,0.0140285356282311,-0.0016227258217578,,,,
0.94,-1.4038218290135045,-0.460431179036565,99.87799568397044,-0.0052145622939867,0.0172765883967198,-0.0020029434574134,95988.3413228715,,,
0.9433333333333334,-1.4072915680478169,-0.4556235499708201,99.94430454559772,-0.0043809799583717,0.0194918722383527,-7.613125190715645e-05,,,,
0.9466666666666668,-1.3979788110160605,-0.4573109447019421,100.00661652599216,-0.0089384793589553,0.025555381217525,-0.0002447981136363,,,,
0.95,-1.388381822081388,-0.4443435242830714,100.0634595607992,-0.0106927744309435,0.0272681598557499,-6.611633024769252e-05,95977.8351784392,,,
0.9533333333333334,-1.381152378571486,-0.4348918739987704,100.13544121733318,-0.0061350872843588,0.0273482894609402,-0.0013045062336426,,,,
0.9566666666666668,-1.3762359011396506,-0.4348031895665918,100.1929465840094,-0.0069888666338283,0.0311327983897817,0.0013412040942669,,,,
0.96,-1.3609878261603443,-0.4243654402743497,100.25651494805084,-0.0076107708830685,0.0313401236409912,-0.00087870057403,95966.30941056304,,,
0.9633333333333334,-1.360616789058424,-0.4289844548445318,100.30263448249488,-0.0075073576082573,0.0346372719731944,-0.001163237387009,,,,
0.9666666666666668,-1.3398119601133132,-0.4084264146406242,100.3449458266578,-0.0097871642671406,0.037934854453409,-0.0013204847416951,,,,
0.97,-1.3339334534597442,-0.4066980545327263,100.396660016316,-0.0103250845610758,0.0360805788346,-0.0012562995585024,95956.34661467992,,,
0.9733333333333334,-1.3167515497440725,-0.4035827573360969,100.4402195926711,-0.0135643373208046,0.0409662924030319,0.0022626914753414,,,,
0.9766666666666668,-1.3022664315985562,-0.3832810783760588,100.47036496211314,-0.0136582235699526,0.0438494023224323,0.0028166911220799,,,,
0.98,-1.2925177696134351,-0.3817236854210074,100.53149590713797,-0.0117872358922464,0.043053381185422,0.0028435484359788,95945.28586156784,,,
0.9833333333333334,-1.283555333292872,-0.3740213676688732,100.56046984000244,-0.0128637297705834,0.0462438716919008,-0.0002272913257226,,,,
0.9866666666666668,-1.2648710987519791,-0.3699042826473255,100.59993187606564,-0.0086999470291318,0.0508700737673229,-0.0001470065742752,,,,
0.99,-1.2473884489565812,-0.3603605591576092,100.62028150489334,-0.0149420100178194,0.0502642602413524,0.0007740447566362,95933.38681255389,,,
0.9933333333333334,-1.2322640356078054,-0.3524583096262618,100.64227322807412,-0.0152162681629154,0.0533783051547041,-0.0013101535226354,,,,
0.9966666666666668,-1.2177909508548286,-0.3398459787990271,100.66477210694904,-0.0106471883090661,0.0517944829358151,0.0014743765720078,,,,
1.0,-1.202221739854743,-0.3247452901130379,100.6961799823946,-0.0136793677193434,0.0552702513011619,0.0010047323486375,95924.57942579206,33.498617853602205,-99.33761935988144,460.0320947015335
1.0033333333333334,-1.1889046797597715,-0.3327711682763822,100.71643001306455,-0.0149047507477987,0.0543193293407836,-0.0028253725795495,,,,
1.0066666666666668,-1.163935266926265,-0.3161515249258114,100.73075825147122,-0.0128834098291798,0.0572314657807314,0.0006870825684632,,,,
1.01,-1.1529117897023815,-0.3108511241640229,100.73530707705392,-0.0118298432428644,0.0592341172273017,0.000172218890403,95912.11803007191,,,
1.0133333333333334,-1.1279595201346186,-0.2925705973252166,100.7459766547343,-0.0129398975705992,0.0612675916362121,-0.0016325840001876,,,,
1.0166666666666668,-1.1129408138483867,-0.2891057452544264,100.77663593882676,-0.0148650661838668,0.0623661327606744,-9.924320618001202e-06,,,,
1.02,-1.0850970568242737,-0.279750683776641,100.79066998457364,-0.0150482911805728,0.061280165762164,0.0003911840840668,95898.55241692308,,,
1.0233333333333334,-1.0696848627067117,-0.2723276720227292,100.7952269862678,-0.0154380230718576,0.0647383519379692,0.0005252482892884,,,,
1.0266666666666668,-1.051527043050111,-0.2565595045679971,100.82558463205956,-0.0151385830074147,0.0667097032444291,3.837348341566439e-05,,,,
1.03,-1.0349197639197505,-0.2419118580161902,100.82939927646086,-0.014255117924745,0.0636334795610263,0.0005000702646683,95887.48202938034,,,
1.0333333333333334,-1.0074733006600147,-0.2267100323524426,100.86053948375968,-0.0122987221088885,0.0675656736159505,0.0030164738928945,,,,
1.0366666666666666,-0.9853571716631996,-0.2211888167035145,100.8722533892876,-0.0122080578578222,0.0672542986599352,0.0004770839367291,,,,
1.04,-0.9693698379859248,-0.2134075153676582,100.88307280433597,-0.0181024646002213,0.0690928071913476,-0.0002269103160099,95875.01677635557,,,
1.0433333333333334,-0.9512763344958944,-0.2053788297461925,100.89819529405383,-0.0159959589614728,0.0684559985014015,0.0007920915546864,,,,
1.0466666666666666,-0.9269700429083144,-0.1818987640809606,100.92391257372016,-0.0163928812651426,0.0713018863938668,0.0045586675150461,,,,
1.05,-0.8997566164085306,-0.1790303627493603,100.93953904094896,-0.0130190771963579,0.0663727387018459,-0.0008558639588797,95864.55926270883,,,
1.0533333333333337,-0.88515076600216,-0.1543956846137421,100.9615003842754,-0.0143168055454034,0.0707089268657845,0.0017803450705985,,,,
1.0566666666666666,-0.8558915707994782,-0.1526574988524882,100.9913051725056,-0.014837714844336,0.0689886432311565,0.0005759129311644,,,,
1.06,-0.8330758255419342,-0.1420676416928459,101.01161391318914,-0.0157777684701028,0.0663573579172176,-8.631906816551503e-05,95853.36242549492,,,
1.0633333333333337,-0.812116002347063,-0.117052320220662,101.0482559464968,-0.0141112410904619,0.0704471151289213,-0.0011953564854393,,,,
1.0666666666666669,-0.793295964461296,-0.1161179909407819,101.0858213759157,-0.0138992319443727,0.0709860729064566,-0.0015990789149076,,,,
1.07,-0.765639668837234,-0.100874647436142,101.12948341248403,-0.0153689411256372,0.0669446361357203,0.0027380131644908,95841.17280309313,,,
1.0733333333333337,-0.7444874060923671,-0.0942489352632483,101.1536637307718,-0.0161281421698097,0.0694133110346545,-0.0002403559082044,,,,
1.0766666666666669,-0.73147271373023,-0.0924425838970976,101.17916816466504,-0.0135335398869444,0.0683565202090378,-0.0011969798780387,,,,
1.08,-0.6967124424769823,-0.0762936069241185,101.22667957061188,-0.0135398685527003,0.0679337571729109,-2.043319578869412e-05,95828.86928633506,,,
1.0833333333333337,-0.6621960431456078,-0.0623806706765974,101.26310921302192,-0.0153094601128869,0.0681624345678398,-0.0004228167430273,,,,
1.086666666666667,-0.6512584160917534,-0.0555701222985534,101.30717484855046,-0.0162194887837073,0.0670641497539669,-0.001543596628136,,,,
1.09,-0.6328202970003953,-0.0350362725805034,101.35792489556287,-0.0151388628423176,0.0626798549449983,-0.0005399858383905,95816.13783171424,,,
1.0933333333333335,-0.6143468229081565,-0.0221965135361162,101.3829587488099,-0.0149950849121848,0.063334471107895,-0.0021632978022674,,,,
1.096666666666667,-0.5926232304727793,-0.0113189068697433,101.42377954504634,-0.0130595882941118,0.0636163891340015,-0.0005973640887285,,,,
1.1,-0.5730047848996408,6.491000358264248e-05,101.46364751987628,-0.0164164613904038,0.0639408918118602,0.0017794114193749,95805.43776542712,33.498641781859064,-99.33761765611598,465.53481539151295
1.1033333333333335,-0.5460768234851002,0.0113983133227199,101.50145956836587,-0.0125921054714216,0.0609534134434188,0.0012750173647615,,,,
1.106666666666667,-0.5294682367215926,0.0151984886478407,101.54258464616224,-0.0115219374912412,0.0604527910142522,0.0011039478595923,,,,
1.11,-0.5062422854284205,0.0222831833650065,101.5618967884264,-0.0136768222805875,0.0577119376432957,0.0028741860580237,95793.13852486758,,,
1.1133333333333335,-0.4847911734976466,0.033004880333627,101.6118168479514,-0.0128248705481521,0.0553343694879505,0.0014163689142825,,,,
1.1166666666666667,-0.4614111992513853,0.0443433649360301,101.63406455800023,-0.0139463398360325,0.0539523939391369,-0.0023378614205335,,,,
1.12,-0.442283484354232,0.0580179185651358,101.67614776856196,-0.0098260485290815,0.0523925816135073,0.0027538482621845,95778.30838228784,,,
1.1233333333333333,-0.4234559555850308,0.0610765584791381,101.7064607788456,-0.0118090009239358,0.0515101033911803,-0.0012912544553021,,,,
1.1266666666666667,-0.4074586601284509,0.0784442373652426,101.729274464641,-0.0133564450223438,0.0480211999722228,0.0020567820947324,,,,
1.13,-0.3819875007381104,0.0763048231037572,101.76088201478692,-0.00939527924213,0.0462298554704313,0.0037652262935086,95767.9217102835,,,
1.1333333333333333,-0.363835159444369,0.0887800932423748,101.79667752522874,-0.0116611743314392,0.046601419245738,-0.0042992848995174,,,,
1.1366666666666667,-0.3648941717870315,0.1018997479836648,101.82189253735778,-0.009711652669584,0.0426145727136605,0.0002984297341273,,,,
1.14,-0.3351999879988414,0.1047798410289098,101.8417825935572,-0.0073504315396884,0.0436707913655672,-0.0024014417285351,95754.63225355255,,,
1.143333333333333,-0.326912043622402,0.1174778665959849,101.86713152096088,-0.0085639604189587,0.0388653391666059,-0.0016309159608065,,,,
1.1466666666666667,-0.3075669667905127,0.1228050793352977,101.90313668163836,-0.0097577992965421,0.0366407053936899,0.0015924034085218,,,,
1.15,-0.296649885474903,0.1326678784713256,101.92500539347738,-0.006399758872006,0.0331132390457825,-0.0013001420440666,95740.17102722357,,,
1.153333333333333,-0.2840831864212761,0.1320599153047598,101.94932082459503,-0.0089757444266397,0.0308437899814497,0.0011557308768758,,,,
1.1566666666666667,-0.2615066582594255,0.1475389809098464,101.97159429655422,-0.006983160639577,0.0319098823491861,-0.0012460019462526,,,,
1.16,-0.2540908298956754,0.1442877664512958,101.99477139393608,-0.0054514768569789,0.0266151171403597,0.0005608065885831,95726.69650298094,,,
1.163333333333333,-0.2415005236833392,0.1521697058818784,102.0217506372638,-0.0068303127076915,0.0256379125178576,0.0026217304615199,,,,
1.1666666666666667,-0.2424961501279323,0.1602054067877585,102.05135382465758,-0.0051776482565413,0.0256983371185841,0.0001262361447947,,,,
1.17,-0.2272135043615951,0.1565612367760969,102.06676493598272,-0.006420305817041,0.0184111675733391,-0.0006981271488905,95711.3793493531,,,
1.1733333333333331,-0.2069556735721808,0.1648703045336826,102.09727906073648,-0.004261483107787,0.0167751939222333,-0.0001337022654661,,,,
1.1766666666666667,-0.1994920500668945,0.1693943274301471,102.12524340811702,-0.0045039553500157,0.0181860917123365,3.696810012936364e-05,,,,
1.18,-0.2027244706967269,0.1640687062818194,102.14847853754884,-0.0049640121518517,0.0138223383175156,-0.002684469747013,95701.48642015364,,,
1.1833333333333331,-0.1945469601869373,0.1705688426713005,102.16592235458816,-0.0029288007554662,0.0093572293986114,-0.0013309241465267,,,,
1.1866666666666668,-0.1910167348165157,0.1801908535568014,102.2014828026375,-0.004627595373552,0.0069538774362176,-0.0009769753817062,,,,
1.19,-0.1884975747633663,0.1674069923067864,102.232467094844,-0.0011954093130131,0.0057521649079897,-0.0012996361999335,95685.80576407722,,,
1.1933333333333334,-0.1841632426200382,0.1693303630896674,102.25516632011704,-0.003342182187122,0.0040378794862602,-0.0005897373719317,,,,
1.1966666666666668,-0.1782402597146617,0.1649229646565999,102.29249851197623,0.0014940140768857,-0.002914234946694,-0.0030888943977074,,,,
1.2,-0.1731665448434112,0.1697331945401771,102.3120377273022,-0.0023028832089893,-0.0001889634396458,0.0027854033680332,95672.8473995432,33.498614722984314,-99.33762606766476,476.24026436159295
1.2033333333333334,-0.1784422996751512,0.1666188300162347,102.34927828099524,-0.0011110025002947,-0.0054316611727792,-0.0017338306676591,,,,
1.2066666666666668,-0.1821658307060148,0.1753928465364396,102.37853484007825,0.0005106235158699,-0.007637162093613,-2.9743971501879397e-05,,,,
1.21,-0.1876514585185112,0.1678681047227828,102.39571108685725,-0.0005295069070145,-0.0081786671682214,0.0009836735032331,95658.32122699491,,,
1.2133333333333334,-0.1837769429103688,0.1734573012522344,102.4325468753858,0.0009798669999324,-0.0125860884212561,-0.0029728651082931,,,,
1.2166666666666668,-0.189414268240927,0.1627171902583883,102.46568260355026,0.0005354617822798,-0.0158323221841662,-0.0038904650210268,,,,
1.22,-0.1869401874326819,0.1564082802685483,102.4951275834716,0.0019535473045362,-0.0193096016110943,0.0013346883683746,95646.1873865452,,,
1.2233333333333334,-0.1948790810193857,0.1565328033913294,102.52231185553342,0.0026312987795016,-0.0212008021554548,0.0019811624499149,,,,
1.2266666666666668,-0.207955130982887,0.1469195374202805,102.53348318060048,-0.0004782512753384,-0.0213678574247953,0.0015885584155739,,,,
1.23,-0.2108048288731573,0.1439292259012562,102.5737057665926,0.0045035894756111,-0.022801443460196,-0.0010753623712437,95630.73081139788,,,
1.2333333333333334,-0.2183403708637781,0.134484199236655,102.5939020168227,0.0040445130152346,-0.0252023223446473,-0.0015460763757975,,,,
1.2366666666666668,-0.2227057916368434,0.1290934431030458,102.6161434770145,0.0055291018153656,-0.028528441533104,0.002467783789669,,,,
1.24,-0.2448710637620543,0.1339106431953492,102.64050041008268,0.0038081982039276,-0.0280874140685163,-0.0007928866977847,95618.46783297008,,,
1.2433333333333334,-0.2519128677133664,0.117983085056979,102.6617218150648,0.0075885286506012,-0.0338379965234085,0.0005086019913745,,,,
1.2466666666666668,-0.2654366999127003,0.1086780326759875,102.67519478699666,0.0056091580978491,-0.0351286435891274,-0.0001869411092261,,,,
1.25,-0.2775250550098538,0.1061289294586471,102.70395539572456,0.0089176509872477,-0.035856897022621,0.0019886930181857,95602.0603170754,,,
1.2533333333333334,-0.3057911916234647,0.0899650697246428,102.71410495862452,0.0049179362296366,-0.0397297394325244,-0.0027548393609739,,,,
1.2566666666666668,-0.2991794198677252,0.0879499439587072,102.7522969121814,0.0070067680561662,-0.0426100989404986,-0.0009852131848632,,,,
1.26,-0.3128542437568066,0.0816899784873503,102.764765823324,0.0067671528019264,-0.046217480799807,0.0016784437313751,95587.98222605207,,,
1.2633333333333334,-0.3448614340349542,0.0731610434624437,102.7875404647114,0.0072738265766595,-0.0454948191123371,-0.0015812492045994,,,,
1.2666666666666668,-0.3614289265219353,0.0645669133484669,102.78927732576462,0.0072108938551394,-0.0464593036073152,0.0007413756513427,,,,
1.27,-0.3792248331100495,0.0618478373152445,102.82244567028904,0.0114428522804412,-0.0478740531832606,-0.0042836378933835,95572.20545293752,,,
1.2733333333333334,-0.3953773666097938,0.0365860833554474,102.82951514861712,0.0084722548310212,-0.0497415076482106,-0.0020466013502751,,,,
1.2766666666666668,-0.4079891113138344,0.0298653004653076,102.85256276106446,0.0102888222473956,-0.0508620828769721,-0.0021978147029467,,,,
1.28,-0.4313110524484347,0.0164187106486625,102.86492052166204,0.0072031590590577,-0.052339875864926,-0.0007790231970166,95558.01002876076,,,
1.2833333333333334,-0.450576591816882,0.0007096759317368,102.8785199910752,0.0110378912822196,-0.0543242696699074,0.0001572776360097,,,,
1.2866666666666668,-0.4655598607277528,-0.0068832130412203,102.89649519684524,0.0120923612165344,-0.053031065739331,-0.0022383222254207,,,,
1.29,-0.4944419168630875,-0.005753887514503,102.9301691473664,0.0114595663673447,-0.0563027128588521,0.0012285608862643,95541.96528261488,,,
1.2933333333333334,-0.5160164650077548,-0.0177570676762987,102.93554825435604,0.0096986948274511,-0.0522643801355975,-0.0002929316829465,,,,
1.2966666666666669,-0.5369247949897833,-0.0351897632397176,102.94834500809752,0.0121607001922898,-0.0550311633591575,0.0005854372759859,,,,
1.3,-0.5567322728115388,-0.056644130750687,102.96419682571864,0.0068494740454042,-0.0568028252856607,0.0010757157455637,95529.5823940445,33.49864688952839,-99.33760866500572,494.3124702245163
1.3033333333333337,-0.5807686853344747,-0.0643732162586587,102.99515004314856,0.010381082541558,-0.0615401428064152,0.0011604384658827,,,,
1.3066666666666666,-0.601722327078491,-0.0834939439556681,103.01339131716624,0.0130095068848642,-0.0599364033762901,0.0008736653758346,,,,
1.31,-0.6262555739812569,-0.0978429278844978,103.035686146624,0.010810975076561,-0.0610912073967149,0.0020059917357726,95513.93160227458,,,
1.3133333333333337,-0.646663401907516,-0.1027454949119144,103.07280705853874,0.0107946678497233,-0.0585331163339594,-0.0010593081876598,,,,
1.3166666666666669,-0.6823514074010316,-0.1145215459878347,103.08622886582502,0.0121960740854918,-0.0597420575743762,0.0004928765359514,,,,
1.32,-0.7102687454615428,-0.1212286630171852,103.11359678414198,0.0097906861238394,-0.0574702296132024,-0.000191238269901,95498.45828727885,,,
1.3233333333333337,-0.717791650414965,-0.1347200571101426,103.15893670748372,0.0095191456833118,-0.0586962052057042,0.0021170158397961,,,,
1.3266666666666669,-0.7558165887109978,-0.1506625898890577,103.18175168355052,0.0131226806193706,-0.0581226096009598,0.0014677350479415,,,,
1.33,-0.7744285137005852,-0.1606805190335898,103.21789213060296,0.0104260392729522,-0.0592108670926984,-0.0004092580525338,95483.94738934247,,,
1.3333333333333337,-0.7954470308479499,-0.1807314703969502,103.25099513377856,0.013595040222596,-0.0569007640986853,-0.0024210318338312,,,,
1.336666666666667,-0.8127349012810765,-0.1918718069001017,103.27838734696948,0.0138677643044741,-0.0604369036406174,0.0017771686136237,,,,
1.34,-0.8459782453360671,-0.1965173311594393,103.31143680849036,0.0122075112570449,-0.0568840473834747,0.001675242709306,95467.63791233105,,,
1.3433333333333335,-0.8670269034873972,-0.2146024158601427,103.3507143915415,0.0096390458685221,-0.0568419171260356,-0.00169143041125,,,,
1.346666666666667,-0.893022290119434,-0.227665368123017,103.3849525356542,0.0077494445271363,-0.0580828153935657,0.0005769096325059,,,,
1.35,-0.9114834718205248,-0.2266430469572053,103.42996314533538,0.0092216490334083,-0.0555290334364982,0.0023325935044037,95451.50859942749,,,
1.3533333333333335,-0.9391708278554411,-0.248264463396386,103.47277367155914,0.008137322189,-0.0525621564548045,0.0014553248151917,,,,
1.356666666666667,-0.9558598505683308,-0.2514080369850177,103.50768325511432,0.0068371806063716,-0.0515644250129374,0.0022457688947057,,,,
1.36,-0.9807107715848016,-0.2618126815753031,103.55095281215382,0.0109654675802105,-0.0550110121318913,0.0004247193212418,95435.76251258736,,,
1.3633333333333335,-0.9930080924362884,-0.2828684961563514,103.59321117074346,0.0086295855375125,-0.0519481723846061,0.0003329978017716,,,,
1.3666666666666667,-1.013380310100114,-0.2872280484694577,103.6396410877878,0.0080102650261523,-0.0500926658766507,-0.0013193913719367,,,,
1.37,-1.0379788667113683,-0.294187179792638,103.69015569145988,0.0087638018376523,-0.0492511978258298,-0.0014807615535014,95419.47390038424,,,
1.3733333333333335,-1.0547206843360184,-0.3028989473860607,103.74920203178289,0.0112578437025483,-0.0439960625589443,0.0038652290150068,,,,
1.3766666666666667,-1.0710309141491483,-0.3121459211501713,103.78226898791095,0.0076936822618307,-0.0452624029005881,0.0021630300420709,,,,
1.38,-1.0888362275801813,-0.3230313712003231,103.81850458859137,0.010138017807593,-0.0443296602386084,-0.0022953863704403,95405.1303494434,,,
1.3833333333333335,-1.1079149884385957,-0.3371934853721156,103.88234929461002,0.0065067104645861,-0.0431910528486041,0.0018785464898535,,,,
1.3866666666666667,-1.1128899328017472,-0.3347587507288527,103.94495522613845,0.0088197450365976,-0.0378179808482329,0.0019175271800861,,,,
1.39,-1.1332653591258113,-0.345638723354923,104.01142537225218,0.00348227789456,-0.0389345365646725,0.001711850341817,95386.8551160728,,,
1.393333333333333,-1.1543094922227597,-0.3415431119011861,104.06433160592682,0.0065709164188406,-0.0365493865489276,-0.0018302882693148,,,,
1.3966666666666667,-1.160730990651155,-0.3583209357526221,104.11767077851408,0.006574497888436,-0.0369304880594629,-0.0017002592350028,,,,
1.4,-1.1761522388964274,-0.3548474444866615,104.18757133576398,0.0030411745994691,-0.0305078042806716,-0.0002928991215399,95372.2865318177,33.49861156737992,-99.33761928352168,501.44760755497725
1.403333333333333,-1.1938807977061183,-0.3645791178945424,104.24969056514526,0.0040479658355823,-0.0313938282892764,0.0007250809350574,,,,
1.4066666666666667,-1.18903797189301,-0.3763528606648769,104.31643574679018,0.0044429667927893,-0.0291531399147703,-0.0013213590638256,,,,
1.41,-1.2061981829256077,-0.3667593278863662,104.3987802690156,0.0048493285351494,-0.0256909982101161,-0.0004416638142975,95354.52067490004,,,
1.413333333333333,-1.208650584023893,-0.3727966258933587,104.46333220569258,0.0040998922579548,-0.0259276567322236,-0.0019365556356687,,,,
1.4166666666666667,-1.2089604790938269,-0.3748687955917689,104.5415426433742,0.0030484533101832,-0.0180887518910598,0.0004102370471092,,,,
1.42,-1.2160359174499786,-0.3760445623811917,104.61059847189352,0.0041790239687722,-0.0187721266355177,-3.349840367084903e-05,95337.73406615804,,,
1.4233333333333331,-1.236826093581321,-0.3690600495600683,104.67281679567608,0.001715327690464,-0.0188672061279572,-0.0009762539148225,,,,
1.4266666666666667,-1.2287931343847318,-0.371342033402058,104.7266607068716,0.0018340861682259,-0.0162595213028773,-0.0010189043154828,,,,
1.43,-1.2281012336221846,-0.3602361749710847,104.77416571308764,-0.0006969459925708,-0.0136970160548059,0.0011750586895297,95321.7235659539,,,
1.4333333333333331,-1.234890758321811,-0.3705425936520423,104.8382269212146,0.0017171259545103,-0.0098705681796689,0.0011063548299555,,,,
1.4366666666666668,-1.2234027126041045,-0.3596528414004223,104.88731859866512,0.0004717006755383,-0.0094775171504098,-0.0003692828612557,,,,
1.44,-1.2344126447050563,-0.3642891707866946,104.94048981372332,-0.0022604282159258,-0.0069742230696263,0.0031531730258861,95304.9652564277,,,
1.4433333333333334,-1.227147649403887,-0.3600822867350668,104.9702430935945,-0.0018434491298316,-0.0058817576369439,0.0001760390158559,,,,
1.4466666666666668,-1.2155502742015063,-0.3544502646842975,104.99304855366212,-0.002096415941403,-0.004369642763662,0.0039944865152683,,,,
1.45,-1.2142388160619808,-0.357909327596269,105.00921255780024,0.0012116216371296,-0.0021186922049814,-0.0005122011217868,95287.59026341206,,,
1.4533333333333334,-1.2077406622577294,-0.3512267655312159,105.03041893034931,-0.0009987904563268,-0.0033881715556945,-0.0023288721370927,,,,
1.4566666666666668,-1.2026425410788866,-0.3428301051420609,105.06923475203928,-0.0035699971353704,0.003202192654881,-0.0007035340589481,,,,
1.46,-1.201607387571621,-0.3396466526579715,105.0790850255002,-0.0002759547460151,0.0026742936214564,-4.87024405531657e-05,95273.38694136332,,,
1.4633333333333334,-1.178245596690465,-0.3304807176334643,105.06984954522896,-0.0017061549153779,0.0075181390791057,-0.0001678351046787,,,,
1.4666666666666668,-1.1734831015703058,-0.3303564808635875,105.06442669619976,-0.0049011766594097,0.00402501664252,-0.0007282498318989,,,,
1.47,-1.1625456639677862,-0.3231915189733034,105.05940553072811,-0.0071601504388747,0.0092001949629532,-0.0005998921301441,95254.41485879716,,,
1.4733333333333334,-1.1500719475852144,-0.3118707229946144,105.04217606516536,-0.0034199028992832,0.0109926133486973,-0.0018457661710215,,,,
1.4766666666666668,-1.147330705807853,-0.3054029759272674,105.02454024797882,-0.0034138734399005,0.0095852859205182,-0.0018316222167764,,,,
1.48,-1.130893686126719,-0.2969239602638961,105.01889679995806,-0.0060707998405272,0.0138922722315726,0.0009208906651743,95237.04063244998,,,
1.4833333333333334,-1.118954477679004,-0.2831113087569024,104.98721727175013,-0.0037601485127251,0.0156451787911803,-0.000514372961403,,,,
1.4866666666666668,-1.1005262563616636,-0.2726997531509529,104.95742447722117,-0.0044557729700085,0.0173361581998161,0.0006535969893645,,,,
1.49,-1.0921282683643547,-0.2562334915879465,104.92127473812376,-0.0082262043168953,0.0171334760174341,-0.0012599056208818,95219.93595742136,,,
1.4933333333333334,-1.0728416723481358,-0.2558026517080688,104.88323721992516,-0.0046397974640645,0.0184531887400225,-0.0007916123353398,,,,
1.4966666666666668,-1.0472521638721104,-0.2454494841744734,104.85778745910773,-0.0059729136473378,0.0181339286278406,-0.0011872260390645,,,,
1.5,-1.0372930412596275,-0.2400707143712455,104.8316530860648,-0.0044733904070707,0.0204649931468765,0.0018224227712177,95202.50476058826,33.49867648158617,-99.3375997474568,541.8713002767116
1.5033333333333334,-1.0131119664388402,-0.2376668878419247,104.79873803850818,-0.0070648108996135,0.0189148516632902,-0.0002968798725426,,,,
1.5066666666666668,-0.9883439237400956,-0.2141689196706507,104.78178535927728,-0.006801232812205,0.0188032552432542,9.901115366855876e-05,,,,
1.51,-0.9736132218775556,-0.2063103348895131,104.75486079923849,-0.00255646914817,0.0216385105550534,-0.0003575522358933,95184.5460548611,,,
1.5133333333333334,-0.960566642417691,-0.2035222875717517,104.74230737808358,-0.0058763517226371,0.0221188371852192,0.0009986464543485,,,,
1.5166666666666668,-0.9413526386607224,-0.1830649928538596,104.71519026977204,-0.0092129435216873,0.0216445165647303,0.0011489267222319,,,,
1.52,-0.9105208612969264,-0.1742898681850846,104.69949495343288,-0.0048261980932656,0.0230412458593268,-0.0011359426375317,95165.921464289,,,
1.5233333333333334,-0.900898033958518,-0.1666458988839475,104.689890730749,-0.0058389239703226,0.0226802609744382,0.0015868461693251,,,,
1.5266666666666668,-0.8700035935439699,-0.1443215501220537,104.6739558417613,-0.0091006066836122,0.0241597300768032,0.0011209054880195,,,,
1.53,-0.85213516953363,-0.1378827880710148,104.67982319559174,-0.004445924783626,0.0219459020234755,0.0040132372984605,95147.41051723102,,,
1.5333333333333334,-0.8406283386987945,-0.1311112313847968,104.6770342130574,-0.0071433278561485,0.022589943656063,0.0006500134211006,,,,
1.5366666666666668,-0.818310945583564,-0.1068085637755595,104.66223375889908,-0.0086573735916562,0.0244263172073802,-0.0008021019106234,,,,
1.54,-0.7867977249505734,-0.107965902933397,104.67359433813031,-0.0037491176475338,0.0233079532840431,0.0009720221627247,95129.498909022,,,
1.5433333333333334,-0.7765620709517886,-0.0903797252078755,104.6594334839773,-0.005295096899069,0.0200932034992688,0.0006433982716772,,,,
1.5466666666666669,-0.7566902089585866,-0.0837563461891096,104.66789975560005,-0.0038333729948735,0.0207854994355245,-0.0013262115687064,,,,
1.55,-0.7379429819100313,-0.0748686947140017,104.6603332772414,-0.0031159011271231,0.0159720576665996,-0.000212491115468,95111.75175923503,,,
1.5533333333333337,-0.7196359988115619,-0.0716229975182303,104.65867473569938,-0.006260792241863,0.0230036743690327,-0.0024132680514759,,,,
1.5566666666666669,-0.7007994737440785,-0.0445566053260057,104.6638937437038,-0.0049418066616662,0.0177542067853453,0.0018943053834701,,,,
1.56,-0.6845091772345753,-0.0443631236480514,104.65921710140093,-0.0065405469096464,0.0161724314320065,0.0025587628221715,95093.25907139794,,,
1.5633333333333337,-0.6645266035885393,-0.0332826255304207,104.65571499329562,-0.0053051024476657,0.0182394035169507,0.0004156239262821,,,,
1.5666666666666669,-0.6540460068660384,-0.0308252072316768,104.64630789127548,-0.0027738506585692,0.0147663317068348,0.0010865495645935,,,,
1.57,-0.6372879196138048,-0.0240604298677182,104.61784215253434,-0.0059113737483835,0.0140618960504573,-0.0008709366757194,95074.54595589948,,,
1.5733333333333337,-0.6269795333991601,-0.004239263862685,104.6187997055789,-0.0057549690041786,0.0155548896580456,-0.0029323479853414,,,,
1.5766666666666669,-0.6116603999586956,-0.0048722215174995,104.60169815383944,-0.0042948818711234,0.0162106507710006,0.0004009457801688,,,,
1.58,-0.5932043261768377,0.0044520291919354,104.59967725601366,-0.0035977320808031,0.0127329045579068,0.0015215679634645,95057.73724563031,,,
1.5833333333333337,-0.5839542667290388,0.0169657538329124,104.57065484758864,-0.001370784501189,0.0111046390449103,0.0014163271715917,,,,
1.586666666666667,-0.5716095527971695,0.0079485252688049,104.53568360193688,-0.0031664010098107,0.0108226803487453,-0.0019733807172135,,,,
1.59,-0.5563828606189597,0.0106181680533096,104.49977980966972,-0.0013278301958786,0.0066853163971121,-0.0003496273919799,95037.54162931548,,,
1.5933333333333335,-0.5529039981431586,0.0258008882653401,104.47033160627234,-0.0048248656880345,0.0067510367635516,0.0004229344245021,,,,
1.596666666666667,-0.5401836108802985,0.0327867124117333,104.42839199682768,-0.0014122222630638,0.0060052402535324,0.0011731311502093,,,,
1.6,-0.5435056867403331,0.0260315425345102,104.40678293640848,-0.0002992342626604,0.0062709696502382,0.0034094882667084,95018.46439934285,33.4986499836854,-99.33760716018573,529.1887016807783
1.6033333333333335,-0.5228896053298682,0.0312354291866241,104.36349598878444,0.0007715338604226,0.0008162637218986,-0.0002856667815265,,,,
1.606666666666667,-0.5142733522260974,0.0361830711595205,104.296094426881,-0.0014038523807111,0.0017410050323708,-0.0004297432433625,,,,
1.61,-0.5267148605629987,0.0318185634889635,104.24657933193645,-0.0006292985752306,0.0003292690710947,0.0021583664974306,94999.78481679827,,,
1.6133333333333335,-0.5251434064933487,0.0315292699013855,104.1847727598099,-0.0032590967859632,0.0017665257372275,0.0006373666087652,,,,
1.6166666666666667,-0.5140222519833647,0.0396192747762379,104.12894623055912,-0.0025356028672865,-0.0027243271588034,0.0005206966494609,,,,
1.62,-0.5188657497682724,0.044270167482651,104.0833133071548,0.000406454676824,-0.0051567357982939,-0.0013284600576641,94981.27489783076,,,
1.6233333333333335,-0.5110117304172228,0.0470895484723322,104.01328738383572,-0.0023505987192915,-0.007821399266769,0.0022521614827519,,,,
1.6266666666666667,-0.5021495219353265,0.0315893173727942,103.95048358450622,0.0025282993729499,-0.0096586485324396,-0.000335614581891,,,,
1.63,-0.5197016849006921,0.0186046713332953,103.87476310485854,-0.003863874034248,-0.0093784922931671,0.0004983377811803,94962.55854675893,,,
1.6333333333333335,-0.5148988764144696,0.0378277513900261,103.82365954228923,-0.0021084438671099,-0.0096176666022726,0.0023782175430459,,,,
1.6366666666666667,-0.5303861881147484,0.0167239821869037,103.75211012305022,-0.0001573167014961,-0.0115969739012693,-0.0004688725071003,,,,
1.64,-0.537656299274254,0.0159841971427288,103.67184852084372,-0.000670315612514,-0.0121964135819475,-0.0034608520139196,94941.66324150431,,,
1.6433333333333335,-0.5372425484279639,0.0216653254901017,103.62021704976654,0.0010991933824687,-0.0147224972055452,0.000364102282406,,,,
1.6466666666666667,-0.5467289672952038,0.0252400849588324,103.5535904516822,-0.0004363267662677,-0.0140629613106385,0.0001558521862934,,,,
1.65,-0.5475349723158875,0.008501948158111,103.4986747064794,0.0018208102402303,-0.0180911160677297,0.0020421756045126,94920.9546252166,,,
1.6533333333333335,-0.5581388415006111,0.0008360365940128,103.43439063878571,0.0014601258032125,-0.0197572798852141,-0.0020165944060044,,,,
1.6566666666666667,-0.5661287839879857,0.0002417850046582,103.35374210656263,0.0016126176111169,-0.0220713132741438,0.0023553476235334,,,,
1.66,-0.5930620113269826,-0.0149830008021771,103.29813665149504,0.0030521175385312,-0.0189977285109246,-0.0022753144465554,94902.57736676528,,,
1.663333333333333,-0.6059585066446311,-0.0236315469998385,103.2363269107008,-0.0003350042861438,-0.0235624126014291,0.0006612923955151,,,,
1.6666666666666667,-0.6133868076900281,-0.0315058552259577,103.18203146340288,0.0002624079613516,-0.0216472163398707,-0.0015429830881224,,,,
1.67,-0.631352600231225,-0.0362076453038595,103.1186835196112,0.0025562976908096,-0.0224622634043177,-0.0020064296031133,94882.76066844047,,,
1.6733333333333331,-0.6442064852705013,-0.0398194413300738,103.07441838970688,0.0046128072319628,-0.0257306209967552,0.0003917409046598,,,,
1.6766666666666667,-0.650203332188074,-0.0414600954757887,102.9927765631041,0.0057576223679631,-0.0240266688390683,0.0008325936406918,,,,
1.68,-0.6703221062622586,-0.0608318465931539,102.94441367151002,0.0057828079379699,-0.0255074125968751,0.0023398437459,94863.97957352611,,,
1.6833333333333331,-0.6928596844927167,-0.0633761867314321,102.90157284898112,0.0046049605860322,-0.0244840327034737,0.00126015141976,,,,
1.6866666666666668,-0.7050557928329342,-0.0730266163210473,102.84220002399142,0.0005957959768452,-0.0277899187121712,0.0004222343477948,,,,
1.69,-0.721177970478529,-0.0805174481983679,102.78276918868394,0.0026230258779348,-0.0282706844473426,0.000792594445977,94841.08718931409,,,
1.6933333333333334,-0.7407532028335156,-0.0880173791911357,102.73622985870544,0.0052178793892926,-0.0290094578252022,0.0004072611992864,,,,
1.6966666666666668,-0.7508983397961865,-0.1133800166944405,102.66757700033226,0.0059200379024873,-0.0277741847327251,-0.0008640613873371,,,,
1.7,-0.7701139714440685,-0.1107267541286365,102.61933904092106,0.0041304627861412,-0.0297247801811299,-2.812910061913509e-05,94822.32790365092,33.49861407734108,-99.33760795226704,558.9757573739054
1.7033333333333334,-0.7805652760397636,-0.1227685231288338,102.55725451426778,0.0076410396119979,-0.0302534859538329,-0.0003022450070005,,,,
1.7066666666666668,-0.7845669230919136,-0.128856517224009,102.51221996610064,0.0072539053144369,-0.0272122484480843,0.0010047709408225,,,,
1.71,-0.8208649287734182,-0.1403291473602401,102.46149551825532,0.0036915987834149,-0.0248394344533393,-0.0028868281293283,94802.52673685344,,,
1.7133333333333334,-0.8377068117090257,-0.1529503525358754,102.40009488938668,-0.0012905107811198,-0.0284132131788283,-0.0007283796132531,,,,
1.7166666666666668,-0.8522794319916693,-0.1559134267983086,102.35522355212068,0.0051494220928433,-0.0275750528459875,-0.0011155269777906,,,,
1.72,-0.8729201142683529,-0.1699247381804426,102.29374532543646,0.0054066696804836,-0.0278045557881903,-0.0018870222330742,94783.39678295547,,,
1.7233333333333334,-0.8789061791350464,-0.1786105496813861,102.24149024013327,0.0060383355827403,-0.0270196498074098,-0.0016511688533639,,,,
1.7266666666666668,-0.8946305012303243,-0.1834817609586745,102.19481433144794,0.001774613789836,-0.0254505028422962,0.0009276516526305,,,,
1.73,-0.9060505829303876,-0.1889744141844668,102.13432629001814,0.0039968739249769,-0.027110446585514,-0.0031170029943354,94760.68607043584,,,
1.7333333333333334,-0.9316704361362308,-0.2024773151878273,102.0799822623734,0.0035227576714245,-0.0243624469731288,-0.0010823460536743,,,,
1.7366666666666668,-0.9469500185304194,-0.2047450260574852,102.03737013585044,0.0057063438513121,-0.0259745676331862,0.0001899023640945,,,,
1.74,-0.9533835530069532,-0.2132585982408272,101.96820620428154,0.0039515964230312,-0.0223423600473272,0.0012948529276405,94741.4183967742,,,
1.7433333333333334,-0.9666685311236404,-0.220489621073233,101.9228366871525,0.0059555089057327,-0.0219874064479285,0.0007920970081734,,,,
1.7466666666666668,-0.9879071509143934,-0.2199736701171523,101.87844237714944,0.0031763815049284,-0.0213721054946255,-0.0008150162787841,,,,
1.75,-0.9919501510051426,-0.2310872060675909,101.83528997152123,0.0021444189697331,-0.021627799212535,-0.0022378194525601,94719.04284580809,,,
1.7533333333333334,-1.0022310154977387,-0.2308528937350212,101.79559335653592,-1.2275013586237995e-05,-0.0198823506310539,-0.0011707312269374,,,,
1.7566666666666668,-1.0126875599894298,-0.2426323073893979,101.74446306808152,0.0054602017620614,-0.0182613966233236,-0.0001600376437862,,,,
1.76,-1.017440633581426,-0.2513688200724097,101.70451628918345,0.0028514711863699,-0.0145811144382775,0.0020619500782873,94698.536877628,,,
1.7633333333333334,-1.0328575766457455,-0.2429161231139251,101.66448379861764,-0.0005488497510688,-0.0153559075330572,-0.000429377071414,,,,
1.7666666666666668,-1.0305327861633622,-0.2534676503032463,101.62092017749768,0.0025270173435724,-0.0146041633138327,0.000846119067235,,,,
1.77,-1.0507173921807962,-0.2509541587922599,101.58365373875142,0.0037986422547913,-0.0165315335667416,-0.0029074392110328,94680.588712029,,,
1.7733333333333334,-1.047675588858067,-0.2564812896369945,101.54890101829876,0.0014842859835622,-0.0118906559608876,0.000239291789142,,,,
1.7766666666666668,-1.0559137758470147,-0.2592122453459965,101.518759752647,0.0017111929044635,-0.0108916764095081,-0.000331384845063,,,,
1.78,-1.0555984873863993,-0.2593410614973415,101.4761628427324,0.0029097014399533,-0.014532856065584,0.0019061242920003,94656.49046534074,,,
1.7833333333333334,-1.0633795198010432,-0.2589288053324562,101.4360938164496,0.0029488442853592,-0.0125750708260151,0.001233346616359,,,,
1.7866666666666668,-1.054645249782076,-0.2601587562001534,101.40228572179495,0.0006285671044867,-0.0062292045908479,-0.0005465544191407,,,,
1.79,-1.060044672539572,-0.2612264544699962,101.36562459017205,0.0010492685282573,-0.0093067625996651,-0.0006598156697702,94635.24181848356,,,
1.7933333333333334,-1.0566535752809287,-0.255244632773311,101.34135729119672,-8.105105324481265e-05,-0.0091394928229244,-1.2394036410240996e-05,,,,
1.7966666666666669,-1.0677340058635614,-0.2484654270949075,101.31320263385638,-0.0017653030431062,-0.0080448504143614,0.0008877051553836,,,,
1.8,-1.058146533274057,-0.2527826605909512,101.2834097683746,-0.0021528519059178,-0.0112804705077705,-0.0020695159947975,94613.77128967432,33.4985850658348,-99.33766476657324,579.321931922465
1.8033333333333332,-1.043236809937089,-0.2501512974417834,101.24637948847938,-0.0041145230230416,-0.0035649356687204,0.000773420253177,,,,
1.8066666666666669,-1.054660471345449,-0.2412629312644139,101.19911295040362,0.0008785786174578,-0.0043355003317305,-0.0018679631807167,,,,
1.81,-1.0434026625208837,-0.2337595265031695,101.17675753777873,-0.0033823840369466,-0.0054382789066619,-0.002518024050697,94592.14678351788,,,
1.8133333333333332,-1.0278075943939848,-0.2281547685264509,101.13707004114468,-0.0013481811556486,-0.0030420359524951,0.0017169282340055,,,,
1.8166666666666669,-1.0343677804359654,-0.2305810414341488,101.08568731512524,-0.0001188705615545,-0.0007445005797607,-0.00078480918801,,,,
1.82,-1.0183277230550671,-0.2145636216568323,101.06143474590762,-0.0003908532012091,-0.0016929627395318,0.0022487370393694,94573.36054811491,,,
1.8233333333333333,-1.0232886697228356,-0.2135259045765453,101.00273106601622,-0.0037238318552351,-0.0003564771144086,0.0004888178830477,,,,
1.8266666666666669,-1.0005967451044278,-0.219403881262427,100.95590256762998,-0.0024844638256046,0.0026563208296689,0.0010639470526844,,,,
1.83,-0.9913861990203676,-0.2022607214947953,100.90561208839496,-0.0036138050086575,0.0026739275363034,-0.0006959007799113,94549.36838206708,,,
1.8333333333333333,-0.976936210487478,-0.2014253393336891,100.85625321125796,-0.0034598696248092,0.0006047631082298,-0.0013758965592344,,,,
1.836666666666667,-0.973604071965918,-0.1865370576872585,100.80054005314088,-0.0027421132787432,0.0003311727448713,-0.0011843391118726,,,,
1.84,-0.9541981735126442,-0.1767602395985168,100.73523170630584,-0.0020380820370658,0.0033573133701175,0.0004231728743764,94527.8367817526,,,
1.8433333333333333,-0.9497164446409204,-0.1767354544890108,100.6672777089992,-0.0016607538586642,0.0015437898634429,0.0005051057226304,,,,
1.846666666666667,-0.9330786513653287,-0.1659720829474808,100.5970930382482,-0.003233697901766,0.0001083109207064,-0.0002157906551812,,,,
1.85,-0.9221613411779742,-0.161347601507144,100.51309994834727,-0.0029611652998919,0.0004044148765061,-0.001660024954835,94506.9238363456,,,
1.8533333333333333,-0.909760851233859,-0.1492700943942181,100.43624514914116,-0.0030226123446834,0.002147270079203,0.000279872602185,,,,
1.856666666666667,-0.9012755144604192,-0.1457665049932967,100.36403931250908,-0.0076275783517792,0.0036829248946071,-0.0023433436560962,,,,
1.86,-0.8958421777253188,-0.1367046789460823,100.28097759264185,-0.0008217200916298,0.0028292997241803,-0.0012643110602613,94485.46355259928,,,
1.8633333333333333,-0.8721780107032469,-0.1449942937788284,100.18373992286146,-0.0044900353415845,0.0012997193156906,0.0026107550694724,,,,
1.8666666666666667,-0.8645657560819235,-0.1213915681555532,100.0933235291617,-0.002223885230105,0.0069927079196881,-0.0009485469011606,,,,
1.87,-0.8634379110807329,-0.1242411369565302,100.00011541668265,-0.0005816775900094,0.0048996329375863,-0.0001606949016068,94462.1244926676,,,
1.8733333333333333,-0.8417175940311059,-0.1058127636522058,99.88910941985596,-0.0019728587008527,0.0041333938515778,4.5034377673988986e-06,,,,
1.8766666666666667,-0.8224688921246447,-0.1049267539647294,99.79645956318129,-0.0002236322676857,0.0027291662082347,-0.002106758540105,,,,
1.88,-0.8176590427005069,-0.0996897286876655,99.69018278949498,-0.0031898483108499,0.0018838276345304,-0.0026895462258775,94438.71214644352,,,
1.8833333333333333,-0.8242357234653829,-0.0983390940113898,99.584594240475,-0.0032114684366451,0.0035213510399385,-0.0021366671498532,,,,
1.8866666666666667,-0.801385729640648,-0.0888069415591346,99.47804539853335,-0.001491116534428,0.0042769299730253,-0.0014522776258628,,,,
1.89,-0.7966491657541521,-0.0873971111218963,99.37635754750974,-0.0050329531075189,0.0035052712577974,-0.0024685752241264,94418.50828654776,,,
1.893333333333333,-0.7779410736710531,-0.0799253175654987,99.26511570872589,-0.0026245540296623,0.0016583403707175,-0.0006302428829385,,,,
1.8966666666666667,-0.7723107298971728,-0.0837755506398055,99.15382195387484,-0.0003473276069133,0.0008493477460923,0.0026226532685815,,,,
1.9,-0.7633626329573832,-0.0710339692334735,99.04295121701838,-0.0018149272367511,0.0007808144214065,0.0004180076588312,94394.7355694154,33.49864464132031,-99.33766106558498,598.2592328331135
1.903333333333333,-0.7572241463708448,-0.0576346490497323,98.92665189214692,-0.0021110117841836,0.0002493422855113,-0.0010673315836977,,,,
1.9066666666666667,-0.7613068742549578,-0.0668271658850178,98.81566466601254,-0.0018833255276904,0.001795228160868,-1.7351311449040163e-05,,,,
1.91,-0.7429774405595099,-0.056053700326221,98.69232576347176,-0.0034932015549911,-0.001529100403937,-0.0002744043958296,94371.9153441465,,,
1.9133333333333336,-0.7336228225621407,-0.0608369731824712,98.57564239321503,1.997371424466705e-05,-0.0033845112837564,-0.0004936967202717,,,,
1.9166666666666667,-0.7414724238597991,-0.0489568276978923,98.45976739574157,0.0020323436884266,-0.0032007977631153,-0.0033381248919587,,,,
1.92,-0.7327716860237932,-0.0589909690587848,98.34747181166536,0.0002973966331885,-0.0038534962096408,0.0011252873607968,94347.60127132568,,,
1.9233333333333336,-0.7347116781456207,-0.0555170953696836,98.23513909871704,0.0003551269668763,-0.0064102097824559,-0.0006840666458787,,,,
1.9266666666666667,-0.7223119101953246,-0.0556165494070883,98.13318250574795,0.0003857994846359,-0.0075893409692424,-0.0006447423029291,,,,
1.93,-0.7195509707615799,-0.0511281709902953,98.02719152081066,-0.0001818526189529,-0.0082774744342509,8.673100674356927e-05,94325.3923512187,,,
1.9333333333333331,-0.7237990633595305,-0.0578459594246223,97.92127477288062,-0.0009107996385905,-0.0053624434616152,-0.0001433283595725,,,,
1.9366666666666668,-0.7185990779913298,-0.0629287321856705,97.81079619636618,0.0007133896607864,-0.0067419812026722,-0.0016141711295559,,,,
1.94,-0.7374531240058173,-0.0512334097527284,97.70434033177472,-0.0020324132705326,-0.0064672486247119,-0.0022150611133674,94301.96739828977,,,
1.9433333333333331,-0.7269724726072698,-0.0582345712367779,97.59158351047095,-0.0007998098114003,-0.0068462673908989,0.0030279085024441,,,,
1.9466666666666668,-0.7441092953643876,-0.0599883285162164,97.48030604797582,0.0016366466874611,-0.0079701409948504,-0.002312051091016,,,,
1.95,-0.7385355163737939,-0.0653927669660444,97.38829564945485,0.0008909430999518,-0.0090708524302304,-0.0009706789342704,94278.43110189468,,,
1.9533333333333331,-0.7434350741831345,-0.069351632911073,97.27189021412175,0.0017801916452274,-0.0105266688077693,-0.0005323919706122,,,,
1.9566666666666668,-0.7528168874720416,-0.0658013693481301,97.1597196960849,0.0049015360696254,-0.0153225779403347,0.0001424870309331,,,,
1.96,-0.7513222885454486,-0.0637013554303721,97.05618674536186,-0.0020474444377339,-0.0087557275905181,0.0005593260080118,94255.11031332178,,,
1.9633333333333332,-0.7652164332099204,-0.0778275183233847,96.93638265661212,-0.0022534710350317,-0.0122237680686086,-0.0026797945445805,,,,
1.9666666666666668,-0.7657055431778608,-0.0756475426076941,96.82071325814547,0.0001031162949233,-0.0134438772491077,0.0015410981395567,,,,
1.97,-0.7725061989105706,-0.0891150657118194,96.69998318548696,0.0008224127804521,-0.0111787674514512,0.0047484887066825,94230.6791995711,,,
1.9733333333333332,-0.7754216674673353,-0.0830316701338108,96.57810237685322,-0.0025897663022569,-0.0159475542723909,0.0004039854085757,,,,
1.9766666666666668,-0.7938920360853396,-0.0940973436513738,96.46132551375156,-0.0005012454957459,-0.0159551441444744,-0.0002304051713066,,,,
1.98,-0.7901792232184464,-0.1055628876069707,96.33283205689906,0.0001208848237945,-0.0160044954682172,-0.0003386237363869,94209.88259470947,,,
1.9833333333333332,-0.8036604825077382,-0.098398370738796,96.21519421922552,0.002975226666608,-0.0137746089185126,0.000672480123199,,,,
1.9866666666666668,-0.814333127938148,-0.107405242869979,96.08932562503628,0.0022751590471876,-0.0163445284147606,1.3374203245528102e-05,,,,
1.99,-0.8178123933761374,-0.1107186163730556,95.97128058045686,0.0023524356676732,-0.0151875493275288,-2.640414827232464e-05,94184.53165905629,,,
1.9933333333333332,-0.8318277849101113,-0.1240075742209627,95.82863740797646,0.002130185539166,-0.0166672525035276,0.0018453753757797,,,,
1.9966666666666668,-0.8461973296025108,-0.125203658476229,95.7082853219866,0.0026599597860582,-0.0168381895307706,-0.0003247323139726,,,,
2.0,-0.8519999960521958,-0.1397032716435156,95.58289282396154,-0.0004803665804107,-0.0144029581919993,0.0006579055305037,94160.7761158925,33.49864360472232,-99.33768409831612,610.1840590632141
2.0033333333333334,-0.862424129104172,-0.1298603846099228,95.4511335044796,-4.114488397971138e-05,-0.0140866732021464,0.0003107934531005,,,,
2.006666666666667,-0.8703901895021685,-0.1333856026540639,95.32097700752348,0.0005859587351241,-0.0177964710892115,-0.0022577509345622,,,,
2.01,-0.885052252438772,-0.1341970677698608,95.17246326240566,0.0019347429661137,-0.0154511903843029,-0.0016990130897864,94136.90891817962,,,
2.0133333333333336,-0.8889194852132938,-0.1457216774930627,95.0488183055957,0.0005707613946313,-0.0161793659552457,0.0004961419205886,,,,
2.0166666666666666,-0.9006183183598058,-0.1516647197930976,94.91172282182816,0.0006271764148013,-0.0134770957157878,-0.0012740383418846,,,,
2.02,-0.9159385924030766,-0.1585616535888615,94.7795894435479,0.005107839573144,-0.0158513755431115,-0.0008613220969838,94112.89815902356,,,
2.023333333333333,-0.9230334593925626,-0.1632363319820227,94.63497622816384,3.0697865428688884e-06,-0.0120051256868141,0.0022194621525712,,,,
2.026666666666667,-0.9170399391201324,-0.1574346148252139,94.48704750951774,0.0009478586617492,-0.0130253398967714,-0.0012783850147456,,,,
2.03,-0.9297033050680829,-0.1742543296610414,94.33498570055944,0.004551793917801,-0.0156465441967808,0.0010991172600035,94089.40767094336,,,
2.0333333333333337,-0.9474573670481558,-0.1750835444576708,94.19237919309356,-0.0008584176254462,-0.0107792139563296,0.0016403908329384,,,,
2.036666666666666,-0.9478270746064436,-0.180528412477995,94.04499504248706,0.0007080640276559,-0.0136807455211381,-0.0014160402310977,,,,
2.04,-0.9573941024868872,-0.1767616814096294,93.9071570849098,0.0007561945491342,-0.0151037334282396,0.003675098334003,94065.70099963834,,,
2.043333333333333,-0.959062159702082,-0.1687378916037964,93.73508950125596,0.0031355506252885,-0.0095640825438477,0.0010811678502994,,,,
2.046666666666667,-0.9737030835839254,-0.1851857289912325,93.55920725995188,0.0012200875834689,-0.0085327271499263,-0.0002913319793667,,,,
2.05,-0.9654199418613018,-0.1810160698377388,93.3810866500842,0.0041303364216802,-0.0124773195224316,0.0003476239046437,94040.68392947003,,,
2.0533333333333337,-0.9580893711970986,-0.1910392253361324,93.2178699372271,-0.0006002835511683,-0.0117211423647966,-0.00077643481252,,,,
2.056666666666666,-0.9733771125677632,-0.1839025481791883,93.01268966936875,0.003516061527324,-0.008240333975009,0.0031102640108503,,,,
2.06,-0.9731637362308186,-0.1852037018247662,92.84925197746314,-0.0003400792892036,-0.0098642509642213,0.0007535640178694,94016.66808274743,,,
2.063333333333333,-0.9814676166534796,-0.1940062419269944,92.63753543208072,-0.0020329013132816,-0.011048578860236,-0.0006572154878729,,,,
2.066666666666667,-0.9818023853419552,-0.197421435975257,92.42276727420246,-0.0012970387194578,-0.009907203926141,0.0014982192530985,,,,
2.07,-0.9763447221121117,-0.1872984444685719,92.21236429429491,-0.0034642426019886,-0.0077741848727676,-0.0037989461408719,93992.65826420028,,,
2.0733333333333333,-0.9835759204054644,-0.1925623562278363,91.99281964865264,0.0009186154323321,-0.0111069678731044,-0.0009791515839035,,,,
2.0766666666666667,-0.9786516678798752,-0.1949925249328041,91.78412823292902,-0.0022778131825126,-0.0102664759023076,-0.0021847494856823,,,,
2.08,-0.9768923192129746,-0.1775011341050086,91.5671490162083,-0.0013348422025402,-0.0118618415900567,-0.0033434168664973,93966.76011428944,,,
2.083333333333333,-0.9646212836325948,-0.1739190864367416,91.3366651750099,-0.0002622368553804,-0.0063290834906644,-0.0021261670487199,,,,
2.086666666666667,-0.9781847912411114,-0.1765355545476109,91.10927861977628,-0.0029650280380176,-0.0025787994998078,0.0010299929888386,,,,
2.09,-0.9734293285490896,-0.1912323149025641,90.86505645426136,0.0019285539069349,-0.0075072315241833,0.0020638572386256,93940.95059338676,,,
2.0933333333333333,-0.9614618934434505,-0.1780686469277616,90.64401051526532,-0.0013493010044585,-0.0041712212619499,0.0006027086199166,,,,
2.0966666666666667,-0.9688718155072044,-0.1762427027256256,90.40654405399354,-0.0014577700231966,-0.0031428414707356,0.0011117187638477,,,,
2.1,-0.9592074862032912,-0.1625780046257904,90.17149735006376,-0.0025931376766796,-0.006061534815134,-0.0037831181732991,93917.3253650015,33.49865912035702,-99.33766323311676,632.7217043930897
2.103333333333333,-0.9429109608158758,-0.1687361626982693,89.93358515385908,-0.0017217932490296,-0.0018455463464054,0.001008819871744,,,,
2.106666666666667,-0.9535818471449828,-0.1674430304202679,89.68673516922347,0.0007398855316127,-0.0066153731535204,-0.001414910275384,,,,
2.11,-0.9413916963366752,-0.1593658216052575,89.43340034580561,-0.0005104954810222,-0.0041564261277455,0.0001243187218941,93892.56701629687,,,
2.1133333333333333,-0.9407129414053448,-0.1482809578222644,89.19592729833579,3.441631611044186e-05,-0.0013801754514574,0.0021787700751054,,,,
2.1166666666666667,-0.9294660953815658,-0.158158613450296,88.94911374817805,-0.0001049820111823,-0.0023436309758883,1.0178226951538229e-05,,,,
2.12,-0.937315661932662,-0.1509240464273379,88.71528030596339,-0.0006620261787923,-0.0048099105433692,0.0006656817147806,93870.49811228446,,,
2.123333333333333,-0.9205437577074082,-0.1450835589919204,88.475022372229,-0.0015340909430127,-0.0013296613838691,0.0008554243635848,,,,
2.126666666666667,-0.910670987363788,-0.1333510649109147,88.22183504214291,-0.0025415034990568,-0.0049445300907426,-0.0017604009993942,,,,
2.13,-0.9043147041331658,-0.1386093972470347,87.99454910441433,-0.0004258475937942,-0.0044245688690907,-0.0015173283171668,93843.99951963851,,,
2.1333333333333333,-0.8998454630906649,-0.1372939883275336,87.7514901001148,-0.002321439815591,-0.0008454099378166,0.0014179048242552,,,,
2.1366666666666667,-0.9006614632798299,-0.1372242483967908,87.50820453138734,4.732735880894003e-06,-0.0033005117016761,0.0013728065069964,,,,
2.14,-0.8930230748383087,-0.127624194743743,87.2772194255856,-0.0010305723962823,-0.0032233653166891,-0.0019526046391472,93816.652432084,,,
2.143333333333333,-0.8811897012141606,-0.1275794565601164,87.04687857833368,-0.0012381873677648,-0.0029038643564303,-0.0003269935731894,,,,
2.146666666666667,-0.8820889663191986,-0.1193627146695575,86.83902710895525,-0.0014016190579287,-0.0014784810116788,-0.0011155165302144,,,,
2.15,-0.8680544802879746,-0.1150219748924881,86.61619486759288,-0.0020659885583871,-0.0060151475078633,-0.0012633046038818,93790.40847629769,,,
2.1533333333333333,-0.8780568560150698,-0.1140115466781229,86.39576097893553,-0.0008063622677966,-0.0072910445080535,-0.0038863921560022,,,,
2.1566666666666667,-0.8668742632584101,-0.1064636678881544,86.18632495461068,0.0009764418158201,-0.003111178841357,0.0001447214411922,,,,
2.16,-0.864157649046274,-0.1160584200966977,85.96031813892633,0.0023304397937742,-0.0043521020718203,-0.0016379951599242,93766.28198710596,,,
2.1633333333333336,-0.8508990163030044,-0.10083931221349,85.76350605382974,0.0011576607059593,-0.0059715685216954,0.0015514299668473,,,,
2.166666666666667,-0.8489729273064692,-0.1072240563236486,85.53928744454562,0.0029696024418199,-0.0064813044099046,-0.0008649733609241,,,,
2.17,-0.8494297461539421,-0.1039823093458361,85.34307715343094,0.0005243115689258,-0.005712229444606,-0.0012924215392934,93740.7359329423,,,
2.1733333333333333,-0.8488115284764534,-0.1092939966956045,85.13627096217596,-0.0021029500753976,-0.0049342876017349,-0.0012657400908437,,,,
2.1766666666666667,-0.856741589698245,-0.1067094676476417,84.93614081283299,0.0009311190976266,-0.0058808837358165,-0.0018105449643949,,,,
2.18,-0.8503094692894118,-0.1010425537852214,84.72084002877665,-0.0020764562498342,-0.0070062887906049,0.0010927167854237,93715.28324529243,,,
2.1833333333333336,-0.8435035068852693,-0.104023473241378,84.52497936920432,0.0029987289840177,-0.0081453588407788,-0.0012092133491732,,,,
2.186666666666667,-0.8371102539881363,-0.0969112094227604,84.32393286928492,-0.0010236293165442,-0.0054373431506399,-0.0007222074294913,,,,
2.19,-0.8602622899584726,-0.1146220570395925,84.11965036314969,-0.0009094810356479,-0.0087887617566257,-0.0021777110971259,93688.60870179188,,,
2.1933333333333334,-0.8535389389938557,-0.089476124802229,83.91251992657438,0.0026165964059966,-0.0101455407188101,-0.0002549934051542,,,,
2.1966666666666668,-0.8457899717807658,-0.0997329455330107,83.71972290285436,-0.0009460779042349,-0.0083998500761902,-0.0016325238277238,,,,
2.2,-0.8501694297620589,-0.1052643858044786,83.51489543113378,-0.0005036285322882,-0.0102198361179815,7.479322408297264e-05,93660.72172258272,33.49860752163098,-99.33762594083674,651.2918465615884
2.2033333333333336,-0.8518632105845803,-0.1070200866785452,83.32077553455666,-0.0009458096739851,-0.006684844550951,-6.082025484229258e-05,,,,
2.206666666666667,-0.8544451858371442,-0.1079727738389572,83.12098677593505,-0.0008106485271479,-0.0078324776171848,0.0006208079467024,,,,
2.21,-0.8591015473572378,-0.1064064551118346,82.91381226996972,0.0029139445729423,-0.0089677917854038,0.0018557014272485,93636.34808475626,,,
2.2133333333333334,-0.8541757694576512,-0.1174590607549718,82.72810458675039,0.0017407979699046,-0.0091895760615314,0.0005390478673637,,,,
2.216666666666667,-0.8644872207415121,-0.1090478957444671,82.53468336753157,0.000448726333449,-0.0080516443662147,0.0008250654423043,,,,
2.22,-0.8595408054714427,-0.1151897738607555,82.32683796891878,0.0036855930018361,-0.0090986441614294,0.0010427515552012,93610.1275441484,,,
2.2233333333333336,-0.8708077422675363,-0.112153279075899,82.14521720905059,0.0001949220288836,-0.0084385856105946,0.0022720110866061,,,,
2.226666666666667,-0.8769396213249614,-0.1158046104221498,81.95321613661872,-0.000281107602335,-0.0078106360657022,-0.0014468974670672,,,,
2.23,-0.8900340762551125,-0.1209277953568045,81.75696150065795,8.40291399514087e-05,-0.0093722943373566,-0.003263751386107,93584.43674922704,,,
2.2333333333333334,-0.8885997618999496,-0.1185127675375909,81.56855399989828,0.0045121655934065,-0.0076491037649443,0.0014956718241035,,,,
2.236666666666667,-0.889637579966648,-0.1210180640766364,81.37065584269801,0.002428799399793,-0.0107318973085678,0.0016195717875569,,,,
2.24,-0.8911559605499225,-0.1357304765318903,81.17952796437147,0.0004782329125992,-0.0146776026788262,-0.0002207779186763,93558.44645919466,,,
2.2433333333333336,-0.8973510935127189,-0.129292087826725,80.98675307620482,-0.0009050731375134,-0.012210693403421,-0.0006681855545825,,,,
2.2466666666666666,-0.8940555540995002,-0.1287399235272395,80.80725656025825,0.0010595886941308,-0.0126178977803582,-0.002031150956728,,,,
2.25,-0.8944594288240886,-0.1365446459463002,80.62246166867848,0.0003900963689578,-0.0116362822667534,-0.0005759468057578,93532.22878676756,,,
2.2533333333333334,-0.920618509537271,-0.1345563735093279,80.43726329078741,0.0007332566433057,-0.008761808292945,0.001184950400632,,,,
2.256666666666667,-0.9176452749967432,-0.1445373391317592,80.23954346788871,0.0008197296623185,-0.0096286106295828,-0.0008261002434564,,,,
2.26,-0.9043358212293732,-0.139020726209066,80.05962937932551,0.0015606344349347,-0.0090231794057462,-0.0007967174435257,93504.70566389398,,,
2.2633333333333336,-0.9284119812373928,-0.1348619452528689,79.8863358915611,0.0038520621191968,-0.0109481963794079,0.0024301286024956,,,,
2.2666666666666666,-0.9299454287071162,-0.147179516174195,79.72362359769623,0.0009398694901289,-0.0115037029173063,0.0037671464811193,,,,
2.27,-0.9242215305741388,-0.1522646162944076,79.56517026946403,0.0017875184843112,-0.0093501715557279,-0.0001740221444773,93478.54803364845,,,
2.273333333333333,-0.9416145252469966,-0.1572497397465785,79.39441585511645,-0.0014555094137253,-0.008373872737211,0.0012216276553232,,,,
2.276666666666667,-0.9427438151532048,-0.1502289036340263,79.23170189615172,-0.0020374968713124,-0.0135933718597783,0.0014719105902881,,,,
2.28,-0.9412163515115112,-0.1522995762987507,79.06111802821668,0.0006352942998234,-0.0079261028250737,-0.0012772347591997,93451.55808267844,,,
2.2833333333333337,-0.9429315870292182,-0.1586312537347237,78.9139866625949,-0.0018785729509681,-0.0099814702073644,0.0014652255151291,,,,
2.286666666666666,-0.9503304678783808,-0.1584350703137269,78.75796559202041,0.0005152959916081,-0.0094774026069289,0.0005779808690321,,,,
2.29,-0.9436950484596254,-0.1653622528594326,78.61171712346895,0.0029164425214762,-0.0089258505451237,0.0005617810862561,93424.76325409889,,,
2.293333333333333,-0.9471592156844424,-0.157061540382731,78.47504328833995,-0.0013990217321547,-0.0080861527229053,0.0011825013095754,,,,
2.296666666666667,-0.9581031809309322,-0.1510250906814766,78.32109214276157,0.0007443561666021,-0.0070942943746428,0.002440516525778,,,,
2.3000000000000003,-0.9516209256449526,-0.1537157461792082,78.18012825801004,0.0003266060117852,-0.0103427626085001,-0.0017855131167733,93395.4248300614,33.49865210180373,-99.33766655711936,680.9582247820553
2.3033333333333337,-0.949685417422191,-0.1549355713373745,78.01932742454959,0.0014294992941239,-0.0075685166382057,0.0004694563065011,,,,
2.306666666666666,-0.9588026605640376,-0.1610653106285854,77.85219806911232,0.0015197782444109,-0.0097181299776792,0.0017601557974426,,,,
2.31,-0.953509958721652,-0.150143627654798,77.68749738015754,-0.0001513965063185,-0.0120464014033422,0.0005165579744193,93369.09958743576,,,
2.313333333333333,-0.9660969253993142,-0.1512509226855493,77.52503161168285,-0.0001194905332023,-0.0066687417605866,-0.0001198545898314,,,,
2.316666666666667,-0.9527145984760896,-0.156300123920597,77.3662647267228,-0.0004601493152426,-0.004942902263997,0.0029687090089553,,,,
2.32,-0.96200709625403,-0.1562883210322955,77.1959368114425,0.0013786300716136,-0.005308904518317,-0.0025392425028712,93344.02231852572,,,
2.3233333333333337,-0.9555153465569453,-0.1443959784806377,76.99437274197417,-0.0018428130912192,-0.0048069493666719,0.0010493969018411,,,,
2.3266666666666667,-0.9565725880912592,-0.1516126183957415,76.78873127576922,0.0015024421819278,-0.0049787458280269,-0.0036687176671628,,,,
2.33,-0.9566595944452037,-0.1504987839644357,76.56829979120346,0.0002644276855692,-0.0064512080081232,0.0008700584175874,93316.34771104158,,,
2.333333333333333,-0.953287875867296,-0.1430140298432052,76.36138623409391,0.0008058692443985,-0.0085574998848645,-0.0015718681420785,,,,
2.336666666666667,-0.9438765471015356,-0.1451671000735877,76.14963443907561,-0.0011643439639465,-0.0094461882347017,-0.001245839934566,,,,
2.34,-0.9386002444195256,-0.1524569435570956,75.92862001985507,-0.0020059854517758,-0.009745538210301,-0.0026930962875055,93287.99792257352,,,
2.3433333333333333,-0.941583157804309,-0.1538308950730797,75.72134831057309,0.0008169209212613,-0.0033474595177866,0.0010448026216265,,,,
2.3466666666666667,-0.9440326893959776,-0.1429778962957059,75.50348784092405,0.0019032416883514,-0.0044031447111359,-0.0010713577866676,,,,
2.35,-0.945923275442237,-0.1451377887319939,75.29340981802305,0.0014141514286961,-0.0072419528236266,-0.0016007899167274,93261.36971188035,,,
2.353333333333333,-0.9390990737616958,-0.1365852645654018,75.08706891195499,-0.001661757971787,-0.0058746303109161,9.449944346274692e-05,,,,
2.356666666666667,-0.9261381436006116,-0.1406012068061833,74.87141777166234,-0.0004683119108541,-0.0057830023591733,0.0012453721790005,,,,
2.36,-0.9341260291496208,-0.1349924174272758,74.65045226613975,-0.0010333063962781,-0.0080662309907076,0.0008612168608782,93234.21867210604,,,
2.3633333333333333,-0.9277901676445526,-0.1356333938980929,74.92649288447153,0.0008630457020799,-0.0090332829292792,0.0007240862592609,,,,
2.3666666666666667,-0.9173626104723788,-0.1356112955017927,75.34337566093413,0.0010009636144036,-0.0053000892253225,-0.0025427468275892,,,,
2.37,-0.919129405518488,-0.1289350941729962,75.77589513240123,-2.9375467984258763e-06,-0.0082233151869103,0.0004959652662903,93206.3408060542,,,
2.373333333333333,-0.923459055723846,-0.1354488062612935,76.20065175836294,0.0022066656286742,-0.0035979925839266,-0.001078697753732,,,,
2.376666666666667,-0.9310345636607702,-0.1271219372956599,76.61960857539636,0.0013457679001163,-0.0061698988691547,0.000961900363616,,,,
2.38,-0.9289230720383564,-0.1321984813633394,77.0451546823801,0.0030397629388641,-0.0063556241967324,0.0013306168092048,93179.33344630973,,,
2.3833333333333333,-0.9251223158917168,-0.1178927896070346,77.08953227752065,-0.0019610976727684,-0.0089142975058722,-0.0038531911094039,,,,
2.3866666666666667,-0.9190801856860384,-0.1207757127983042,77.02584007932926,0.0023807045528144,-0.0071873848306323,0.0009709488711807,,,,
2.39,-0.9153043218921438,-0.123027562114014,76.94963634889434,0.0002599981738476,-0.0040793648123704,-0.0002630608521984,93149.95070108766,,,
2.393333333333333,-0.9201212539820496,-0.127227494190784,76.88637011089386,0.0040189423022548,-0.0085951944520636,-0.0016732212767844,,,,
2.396666666666667,-0.919535946775352,-0.1310451608598343,76.81377440758921,0.0012531417947047,-0.0044661482044702,0.0040803270786388,,,,
2.4,-0.9282317819527894,-0.1257564410980247,76.72770656160169,-0.00323906228409,-0.0075358594723755,0.0013193628995934,93123.39161115052,33.4986012013228,-99.3377107222608,712.0155554486352
2.4033333333333333,-0.9181733279662568,-0.1207485564363588,75.69351608017877,0.0046524414488654,-0.0092128568158604,-0.00090554137951,,,,
2.4066666666666667,-0.9129382553778504,-0.1208797238017024,74.36111186385213,0.0016746722931393,-0.0091932676991939,-0.0008188667299855,,,,
2.41,-0.9106822007556804,-0.1189723425745825,73.04268666849127,-0.0008285084333525,-0.0065819513810686,-0.0010835867777971,93096.1706232911,,,
2.4133333333333336,-0.9121939335915864,-0.1155379961582394,71.70672607088746,-0.0003703452903421,-0.0084466508845319,-0.0003442859763572,,,,
2.416666666666667,-0.9148002345587624,-0.1181400971892695,70.39012235804366,-0.0026998008603374,-0.0069281978833046,0.0023439635545206,,,,
2.42,-0.9137933678911996,-0.1216039305423548,69.06397668957226,-0.0009294780098952,-0.0106190015554774,-0.0008794381691188,93066.01827063704,,,
2.4233333333333333,-0.9127539295039596,-0.1302090573430904,67.52079926969444,-0.0036880394855376,-0.0079621330403493,-0.0039886429716934,,,,
2.4266666666666667,-0.9112719308842024,-0.118583778715157,65.9278695044619,0.002147592445863,-0.0073453651059509,0.0027873360156748,,,,
2.43,-0.914851270621104,-0.1219988092014823,64.32057980996989,-0.0006183579967999,-0.0066248981737083,0.0035558982103733,93038.73224322966,,,
2.4333333333333336,-0.920297715157107,-0.1324966444478206,62.7301591102888,0.0021019367651231,-0.0085560568945001,-0.0009821151791821,,,,
2.436666666666667,-0.9216589593892816,-0.1243634995645758,61.14104241354701,-0.0005410237885518,-0.0093608178013923,-0.0013619643996976,,,,
2.44,-0.9285601094705352,-0.1296055140773173,59.53572448399964,-0.0007333266815667,-0.0074982152328771,0.0005634148181477,93012.54018647155,,,
2.4433333333333334,-0.919326470578791,-0.1324925903064114,57.38101039538354,0.0013042351286115,-0.0058917423364883,-0.0008761036392449,,,,
2.4466666666666668,-0.926474969785164,-0.1250498547225647,55.089349516122375,0.0019331731084267,-0.0107790318029356,8.75214873497704e-05,,,,
2.45,-0.9312783951074428,-0.1213694276727269,52.78794173695172,-0.0043658358911549,-0.0078854681981561,2.9802354606315147e-05,92981.86742236478,,,
2.4533333333333336,-0.94214779117266,-0.1269406588905052,50.48088069692455,-0.0011539064332086,-0.0106457279489334,0.0006693746347981,,,,
2.456666666666667,-0.9409582258657562,-0.1307317193169773,48.17690630421008,-9.76850426894411e-05,-0.0083468808788686,-0.0004985782382712,,,,
2.46,-0.9559621801837208,-0.1299554733847826,45.876919864873365,-0.0013813310923248,-0.0094289408643924,0.0010789768447025,92953.2547071871,,,
2.4633333333333334,-0.9494090707333556,-0.1268387840523105,43.977499808614745,-0.0026151545783166,-0.007206618292195,0.0002575473112386,,,,
2.466666666666667,-0.962774753987946,-0.132816534651669,42.19009028827749,-0.0011170838192424,-0.0101274772265737,-0.0013241670525504,,,,
2.47,-0.9614249919077396,-0.1329234617593971,40.408351802033465,0.0001516963888928,-0.0079669389264647,0.0019893789634332,92924.99821049553,,,
2.4733333333333336,-0.96595518962838,-0.1286133167513569,38.64746078510363,-0.0012031963562462,-0.0098981055513556,-0.0017910384525488,,,,
2.476666666666667,-0.9661449904251624,-0.1406396314533168,36.861711426394336,-7.526938698342771e-05,-0.0087126569153241,-0.0001842608962973,,,,
2.48,-0.974811147881102,-0.1369285775927295,35.08972542789564,0.0047406952755909,-0.0105381445096694,0.001737315785437,92899.05746379576,,,
2.4833333333333334,-0.9844963171878542,-0.1289066036460443,34.290229401490954,-0.0014500878871871,-0.0045387409919346,0.0035497970073972,,,,
2.486666666666667,-0.9815135559274444,-0.1310614917692084,33.783699608812704,0.0005373235276881,-0.009449861370319,0.0019951317199923,,,,
2.49,-0.9847850711940268,-0.1315347105137544,33.28732025838833,0.0005442930048674,-0.0065882422933332,0.0024645960101851,92869.67741256878,,,
2.4933333333333336,-0.9976298037129092,-0.1357049273684557,32.76431978523043,0.0012991874861737,-0.0054444469618247,9.038851571020246e-05,,,,
2.496666666666667,-0.9897150547599616,-0.1351258417541768,32.26711766016478,-0.0004397012676147,-0.0089592485209162,-0.0010564216578916,,,,
2.5,-0.98826323955754,-0.1311521999654758,31.77402471187223,-0.0029129342128112,-0.0070862007379282,0.0008967670743517,92839.85975126184,33.498650701621564,-99.33765862669692,730.4627291528566
2.5033333333333334,-0.976279731835298,-0.1359504887829145,31.494163445168933,-0.0010708594772463,-0.0074198800383007,-0.0003846368542596,,,,
2.506666666666667,-0.9993178580923312,-0.134468195900637,31.30204967906128,0.0037918079508663,-0.0096618622480762,-0.0024712779496811,,,,
2.51,-0.9914416696229325,-0.1363309668014968,31.09920604481612,-0.0034838646384127,-0.0061775997905481,0.0007650128336852,92812.48274954766,,,
2.5133333333333336,-0.9908655960577558,-0.1336898189015362,30.90379370539718,-0.0001879827579999,-0.005357431947892,0.0008777099601113,,,,
2.5166666666666666,-0.9915092155249776,-0.1298734982335913,30.70106374354189,0.0003320020209006,-0.0067259744474482,-0.0012815431547345,,,,
2.52,-0.9788541818696992,-0.1446158364563124,30.50114301783093,0.0017510060031188,-0.0055080105724242,-0.001081268212766,92782.88470764196,,,
2.523333333333333,-0.9869242349194948,-0.1398026576875798,30.362656737012923,-0.0009035405153851,-0.005787926275008,-0.0027670224991403,,,,
2.526666666666667,-0.989018437354346,-0.1356707140805893,30.21415677540975,0.0025300377752708,-0.0078719567089455,-0.0009190095487187,,,,
2.53,-0.9777123391361776,-0.1472065300996299,30.085438817913687,0.0001932937092109,-0.0051954562846177,-0.0001072580371148,92755.1858218578,,,
2.5333333333333337,-0.9867521714160415,-0.1319598888155951,29.95308127197408,0.0021893415891855,-0.0084546753699601,0.0003514654135689,,,,
2.536666666666666,-0.984555474094737,-0.1297445480412942,29.814428374650277,-0.0014739465369193,-0.0045956852308894,-0.000959323948185,,,,
2.54,-0.982909221995664,-0.1386140511340637,29.680542205610063,0.0031852590838643,-0.007472776770862,-0.0011906994053807,92728.0211957882,,,
2.543333333333333,-0.9672605346515654,-0.1284095325176641,29.556930055189213,0.003669643466439,-0.000910464454424,0.0022838290116295,,,,
2.546666666666667,-0.981003458491901,-0.1322707402847716,29.409223872362137,0.0026904120860015,-0.0054501354336992,-0.0018638236969498,,,,
2.5500000000000003,-0.9642060738711824,-0.1341630063590327,29.273591358460514,0.0022690163579558,-0.0048819505019432,-0.0011584626925684,92698.98098241205,,,
2.5533333333333337,-0.976467042921982,-0.1294761011375957,29.147192452063837,0.0010980852587702,-0.0088354564377585,-0.0001945521079728,,,,
2.556666666666666,-0.9785304897964048,-0.1292879892688313,29.00447407196,0.0022878112138879,-0.0053524463946528,-0.0005116810903449,,,,
2.56,-0.9616069009854844,-0.1264649107594326,28.86572453599241,-0.003952524713733,-0.0064491047401084,0.0036964066176381,92669.6472599022,,,
2.563333333333333,-0.9598210140965971,-0.1371932904697407,28.76578120859576,-0.0005680575176844,-0.004271589030798,0.0006076069210924,,,,
2.566666666666667,-0.9533481452360588,-0.1316465225072546,28.68851379752818,-0.0019619296096958,-0.0071927477109519,0.0016730884408789,,,,
2.57,-0.9576765111465916,-0.1310173368613719,28.601262792635232,-0.0049520626901661,-0.005873076675724,0.0005606558676272,92639.968768473,,,
2.5733333333333337,-0.9508233746605164,-0.1367551721320938,28.500229871996552,0.0029977737761614,-0.0059105371005804,-0.0011515400404799,,,,
2.5766666666666667,-0.9585303603900148,-0.1409795042615546,28.416877825816687,-0.0031893190503666,-0.0061162382579625,-0.0012434156010312,,,,
2.58,-0.9404996975374046,-0.1242788116975098,28.342212413373232,0.0006465955843564,-0.0053370802542733,0.0013532661622113,92609.48503856492,,,
2.583333333333333,-0.9465619876708834,-0.1250355117517353,28.23021838508405,0.0025896504514127,-0.0069432330263486,0.0009556437254444,,,,
2.586666666666667,-0.945307808845181,-0.1346213393148075,28.09449268556673,0.002864327716831,-0.0055275199373099,0.0009010371334629,,,,
2.59,-0.945250497095095,-0.1310649402579822,27.973479368928466,0.0004480502973806,-0.0040555512587012,-0.0007306268146322,92580.72726093644,,,
2.5933333333333337,-0.9417229320992144,-0.1398039930869497,27.844046291440502,0.0025061541776993,-0.0049895750236608,0.000726833779104,,,,
2.5966666666666667,-0.9490511949281208,-0.131731879021251,27.71688600725029,0.0002372677338562,-0.0045343808436878,-0.0025954407254687,,,,
2.6,-0.9448023200343864,-0.1221552819336359,27.59388181306182,0.0033194779392865,-0.0092138956660294,0.0030877516756878,92552.83949189752,33.49862150042228,-99.33769268964778,762.9497771185567
2.603333333333333,-0.9540958103652624,-0.1322480789666958,27.462314231861303,-0.0002233289034383,-0.0043620680116201,-0.0002499926805095,,,,
2.606666666666667,-0.9501576383605256,-0.129073048912425,27.325031842608237,0.0022687738989844,-0.0080047117383724,-0.0019514607862086,,,,
2.61,-0.9376382630079212,-0.1286396165500253,27.186681841947152,0.0004783522091476,-0.0069250037516846,-0.0008526485893425,92521.20535095234,,,
2.6133333333333333,-0.9448253162416772,-0.1358700243891356,27.05212896274807,0.0033102257787158,-0.0054900948603506,0.0020742253537996,,,,
2.6166666666666667,-0.9456791602621726,-0.1304157382131328,26.90560937854833,0.0017254087153208,-0.0085784503241901,0.0002023484434578,,,,
2.62,-0.946888199766003,-0.1195095898391281,25.338864521980646,-0.0003068819043294,-0.0071403827988742,0.001034934962704,92495.41063993824,,,
2.623333333333333,-0.9421030674862456,-0.1277638934825929,26.65251696655176,0.0021912730494904,-0.007388298348546,2.652987352461694e-05,,,,
2.626666666666667,-0.9608910182062796,-0.1343422243029259,26.52711718282408,1.992948369825573e-06,-0.0068273226706165,-0.0005132128871347,,,,
2.63,-0.9520343821315982,-0.1176831574380078,26.39484154540577,0.0027041469434632,-0.0035122454621123,-0.0014747493925836,92466.98055911913,,,
2.6333333333333333,-0.9560669191616412,-0.1180036770132818,26.27570547405527,-0.0001616954703699,-0.0052879709070285,-0.0010042373979686,,,,
2.6366666666666667,-0.957976943190236,-0.1303235739957559,26.14089901927653,0.0019720351919252,-0.0071025889925749,-0.0016983966115008,,,,
2.64,-0.959461620628916,-0.1309335728203136,26.014038168041814,-0.0021676184498864,-0.0112236754522598,-4.931080473976826e-05,92437.89839567125,,,
2.643333333333333,-0.9586394610263116,-0.1321324043620638,25.88385975528485,0.0005571527208544,-0.0068864857988788,-0.0008566210297071,,,,
2.646666666666667,-0.9701094946842894,-0.1353288052153897,25.75854928174267,0.0018836248503083,-0.0066053175093527,-0.0034764027254575,,,,
2.65,-0.9559734655682544,-0.1331524278844135,25.64444939700572,0.0022029348641228,-0.0054588914045046,-0.0028596796015694,92408.74595850355,,,
2.6533333333333333,-0.969886138192238,-0.1418824690508341,25.50388182859676,-0.0014061006162106,-0.0033129424592645,-0.0018268848238591,,,,
2.6566666666666667,-0.962925884127262,-0.135425766784983,25.377859933301536,0.0008439615873806,-0.0090660215637497,-0.0031225481995812,,,,
2.66,-0.9724774467063452,-0.1307691064309971,25.252417825791973,0.0030359231477487,-0.0095742606502179,0.0030670812989721,92379.77414115632,,,
2.6633333333333336,-0.9686649503428616,-0.1323976450512251,25.142972768788308,0.0030245025289438,-0.0080635591864481,-0.0001781827850443,,,,
2.666666666666667,-0.9796879653969486,-0.1372701506114767,25.032207634268733,-0.000233870934632,-0.0017700018157474,-0.0009039522669974,,,,
2.67,-0.9782193249146072,-0.1342045717326254,24.92276999098413,0.0020614983611925,-0.0087391222602024,0.0017890131107652,92351.43551237514,,,
2.6733333333333333,-0.9785327879271088,-0.1351969953128868,24.81814412144191,0.0010448484168626,-0.0068509706433024,0.0001405479373762,,,,
2.6766666666666667,-0.9809948186362324,-0.1386043692529577,24.70068643283817,0.0014675050673266,-0.0083139616365215,0.0015763587911644,,,,
2.68,-0.9760042594523984,-0.1379507487613814,24.596677024180256,0.0010632650785007,-0.00573277204065,0.0021492984259597,92320.71230632596,,,
2.6833333333333336,-0.9843841392438964,-0.1352317554883229,24.49709035323101,-0.00181579592511,-0.0050800852514239,0.0003770935921735,,,,
2.686666666666667,-0.9885746984485868,-0.1253261596474506,24.405790088039744,0.0017136974793105,-0.006327803881567,-0.0012791858543944,,,,
2.69,-0.9890681689840034,-0.1501619229897102,24.29933001326189,-2.434809051240084e-05,-0.0098245880879299,0.0019781459323941,92292.6504713796,,,
2.6933333333333334,-0.9877322293109586,-0.1198951238154481,24.21339465707582,-0.0030448900214565,-0.0051301913751291,0.0001918200011762,,,,
2.6966666666666668,-0.9854499684631276,-0.1326495054141893,24.11137976770308,-0.001236791897641,-0.006244367001862,0.0012231672134993,,,,
2.7,-0.9864610541398344,-0.1311690070578766,24.017309755697717,0.0009075060694138,-0.0067255066987836,-0.000290325982291,92263.42105779648,33.498635301363144,-99.33774185498037,779.4638682783393
2.7033333333333336,-0.989366811911352,-0.1363262336379054,23.9068912859276,-0.0009743618559002,-0.0035385104904954,0.0037576235854699,,,,
2.706666666666667,-0.9952297378467936,-0.1365174478036025,23.805441700314727,0.0005336575701795,-0.0090431281887432,-0.0003250218913421,,,,
2.71,-0.99059973427426,-0.1321402910696701,23.72032608540027,0.0033158240154616,-0.0063095508883726,0.0004299667617694,92236.76012168395,,,
2.7133333333333334,-0.989911265415914,-0.1459348717955282,23.60866402767204,-0.0007269300700055,-0.0071181550272529,0.0009216259083677,,,,
2.716666666666667,-0.991330982789554,-0.1448773906871063,23.522155963552525,0.0022518685608729,-0.0045643372562733,0.0003239897634934,,,,
2.72,-0.9925708401684946,-0.1296084706706413,23.422446456845368,-0.0007434199103509,-0.0093112516500083,-0.0033169729897246,92205.57606027396,,,
2.7233333333333336,-0.9919479717575678,-0.1303862227616205,23.326168940171566,0.000864572899611,-0.0053983630843081,-7.477309549146674e-05,,,,
2.726666666666667,-0.9902367553634324,-0.1317226410664907,23.22191705982554,-0.0026314417077368,-0.0065809200770963,0.0041846149763522,,,,
2.73,-0.9881263775036968,-0.1386232303989958,23.118629202698774,-0.0025450865613628,-0.0074551372235089,-0.0007402305115636,92175.52458808002,,,
2.7333333333333334,-0.9840083798174152,-0.1254193105038684,23.024625106091158,0.0015598553741453,-0.0084143563334397,-0.0007351293226915,,,,
2.736666666666667,-0.9950922421275084,-0.1384658762728315,22.92330809854609,0.0004113986250034,-0.0068165539239634,-0.001958165764295,,,,
2.74,-0.991698400322808,-0.1347644845321211,22.83165616943963,0.0003246252236553,-0.009718781315437,-0.0001858040789814,92147.80798537836,,,
2.7433333333333336,-0.9895371893855444,-0.1391314564958837,22.73198023224665,-0.0009967587984904,-0.0042485288698934,-0.001175026140381,,,,
2.746666666666667,-0.9888584085598596,-0.1365769564260862,22.6297045926446,0.0011214758933499,-0.0049023496118623,-0.0005439544922434,,,,
2.75,-0.9834763296839324,-0.1241918148507125,22.54655923273168,0.0014015753543412,-0.0064565826178565,0.003106126669506,92117.0292433438,,,
2.7533333333333334,-0.9885212676125008,-0.1421376778440857,22.443224527808898,0.0016306352437854,-0.0058678766784316,-0.0017037035314049,,,,
2.756666666666667,-0.9905441120244256,-0.1402311214508652,22.35615533518413,-0.0025884199378351,-0.0045583958527191,-0.0015266319484737,,,,
2.76,-0.9893910622480248,-0.1391095885944841,22.251223770638823,0.0005294286157764,-0.0069933596127193,0.0006520099718897,92088.38030511112,,,
2.7633333333333336,-0.9788053764963726,-0.1390902596871991,22.16802831082465,0.0009641970424611,-0.0082389858416265,-0.0004319248656056,,,,
2.766666666666667,-0.9847135394322738,-0.1303034108706677,22.05757335149724,-0.0009007558830517,-0.0053253013644627,-0.0001124133238038,,,,
2.77,-0.9806898577836212,-0.1384912692710886,21.973260257195754,-0.0004098758299495,-0.0056893859225544,-0.0040785683013228,92056.77139988776,,,
2.773333333333333,-0.9863145631819203,-0.1395137618147604,21.87344209430562,-0.0023282139929679,-0.0057694069359777,-0.0019602115326797,,,,
2.776666666666667,-0.9932394420183438,-0.1396742041473635,21.776333911183347,0.0016842567427044,-0.0068355825310731,-0.0009992605838208,,,,
2.78,-0.9801402403063624,-0.1332215821261564,21.68812325726713,0.0003102484651622,-0.0059241418330494,-0.0020335355352744,92028.14433666896,,,
2.7833333333333337,-0.991451626103588,-0.1334151908366477,21.596907083750228,-0.0015448388699154,-0.0070285229811008,-0.0030814210732224,,,,
2.786666666666666,-0.9742740062315268,-0.135659261724395,21.507381453121777,0.0017692617428808,-0.0073701782723736,-0.0003613014380109,,,,
2.79,-0.9847858847687324,-0.1325482648422472,21.41855359791708,0.0034294661920211,-0.0055587679190207,0.0021474883533785,91999.28962315104,,,
2.793333333333333,-0.9932720448144714,-0.1332262765913579,21.32694890233021,-0.0005167794400997,-0.0027169114687252,-0.0018683535563827,,,,
2.796666666666667,-0.9853300172866172,-0.1275827511613296,21.2532839230074,0.0008118245862953,-0.0027580737380976,0.0002236020298863,,,,
2.8000000000000003,-0.9904506412896756,-0.1420317705302352,21.1581542246815,-0.0005192330998766,-0.007938711541123,0.0026596225718612,91971.49957370554,33.49866914735862,-99.33773661351871,803.3757452696791
2.8033333333333337,-0.9783048092219648,-0.1348468132143019,21.08379489860697,0.0018441589673014,-0.0049465845049019,-0.002799850662655,,,,
2.806666666666666,-0.9802773504627382,-0.1361814423046272,21.001986832204977,0.0003956025473721,-0.0045961276240432,-0.0030022363675498,,,,
2.81,-0.9832553094978372,-0.1340262105148327,20.92084690524641,0.0007768163335231,-0.0038403278522057,-0.0003169005370875,91940.5890183566,,,
2.813333333333333,-0.9829662319410372,-0.1352995030542728,20.843120619939157,0.0023634256714775,-0.0077835872771714,0.0005440833347095,,,,
