time_s,accelerometer_x,accelerometer_y,accelerometer_z,gyroscope_x,gyroscope_y,gyroscope_z,barometer_v1,gnss_x,gnss_y,gnss_z
0.0,0.0027636268866485163,0.00038692159301760126,-9.781132077427518,-0.0007418180973293523,-0.0014178823618190865,0.00029684902752066946,96454.86884929787,33.498593907849646,-99.33762750913132,413.57298801402845
0.01,-0.0040379843942357505,-0.0004514890367139133,16.577719517740224,0.0025791604842875797,0.00044379059557427404,-0.0002666751369672961,,,,
0.02,0.00401538630054796,0.0017497403384915408,30.07457989985307,0.0020917297786613373,0.001305811157066152,0.000852417851127468,96453.78058851107,,,
0.03,-0.0027728509749989244,-0.00279473753217361,43.55518147020864,-0.0006787476157505349,-0.0008606348959592653,-0.0005312042275230336,,,,
0.04,-0.0029203681296158523,0.00219668419923242,57.05319152202814,0.0009577207133452054,-0.0008841532130979803,-0.00032588270432811633,96453.85282943725,,,
0.05,-0.0036236349018927377,0.00032942675183205106,68.57082211681357,0.0008359520867008927,-0.0003355036012039369,-0.0007186397077017002,,,,
0.06,-0.0016998084081942398,-0.0005568498915790838,80.08864950348818,0.0007964593844200828,-0.0003960819099349236,-1.15218500164309e-05,96454.48262995873,,,
0.07,-0.004161945363039668,-0.003089849592960328,83.50205652094725,-0.00023320964431285392,-3.538187957903057e-05,0.00027907908293928234,,,,
0.08,-0.0035698973363032845,0.0004716858536206205,86.84956470316351,0.0006998025188095305,-3.8176540241228335e-05,-7.841657333828932e-05,96451.80127182047,,,
0.09,-0.004416748787897589,4.366561850843026e-07,86.28177090553737,0.00034866482068136027,-0.0011472161310900333,0.00030788105821168886,,,,
0.1,-0.0006200065842761214,0.006436278683196314,85.6777403399823,-0.00032785845065899996,0.0019634867883490652,0.00010378975631122359,96449.84553001027,33.49864123171233,-99.3376139873664,413.93840532206156
0.11,7.395975335019198e-05,-0.0011189138398049624,85.1771512503713,0.0004957372166816756,-0.0003213200076415095,0.000666664697870012,,,,
0.12,-0.0011962572697598697,0.004254394316703717,84.68363709910258,0.001418122320034249,0.0013419799508439907,-5.497046466181768e-05,96447.95407272833,,,
0.13,-0.0018175216540052515,0.00608072426268044,84.41109888188564,-0.00033282311390940935,0.0013983812670544334,-0.0012607656673392234,,,,
0.14,0.003717049511861783,0.0021428173069618895,84.13462348325801,-0.000311331891545688,-6.677984580873501e-06,-0.00021545538233042261,96449.01098309616,,,
0.15,0.0032632734235453287,-0.0012149357906310859,84.13476486008577,0.0010434570056046914,6.42589836311792e-05,-0.0011152478659090307,,,,
0.16,-0.0019390986808700082,0.0016615600781741064,84.1326759582033,-0.0017143200098111194,-0.0015020211321529918,0.0009491586876477266,96444.50326486428,,,
0.17,-0.0025531537354832536,0.001691818255056985,84.25705013028501,5.829842769259103e-05,-0.00210561731968617,0.001796676620153172,,,,
0.18,0.0023980670730328335,0.0027807984893362106,84.38388180487146,1.8481802794031895e-05,0.0008276668224844101,-0.000889889069969226,96441.15854239513,,,
0.19,-0.00085264227700599,0.00048734661977039445,84.37132356708014,-0.0010716937175656485,-0.0004803167355161185,0.0007553460531459005,,,,
0.2,-0.00139356612921001,-0.0007569977478178806,84.34614534130381,0.0006190800371881635,-0.0010651257017978272,-0.000643095498498882,96436.06885308835,33.49860612373349,-99.33760925645521,417.1097560173216
0.21,0.0038107972321241167,0.000525014852786895,84.37900756342614,-0.0009379979676461924,-0.0006146395931368553,0.0011011847977430214,,,,
0.22,0.003589057958642349,0.0016785485340672696,84.41010370147531,0.0002592277809643095,-2.607811535634516e-05,-0.0006673644036394408,96433.98936741964,,,
0.23,0.002301681326914056,-0.00015828386439527663,84.45333522059263,-0.0002800733428744394,0.0009689691435299928,-0.00017530277448747392,,,,
0.24,-0.002028770455409903,-0.0015400765164321302,84.50121430188612,-0.0002517554257997789,-0.0010566896840154252,-0.0007905660331345098,96428.5802584575,,,
0.25,-0.0017587907251416458,-0.003412704721691681,84.54095521633674,8.425432803217487e-05,0.000794216166431276,0.0005318893478202224,,,,
0.26,-0.003997771768049544,0.0015573291515235737,84.58215307362073,-0.0010000072814144384,0.0003400350739686469,-0.0015083803196213137,96424.49922027708,,,
0.27,0.0016448483858777004,0.005461124177101997,84.72805978446702,-0.00027713597321360825,-0.0004747480986761876,7.47575627620668e-05,,,,
0.28,0.0008167298255486536,0.0013586849078183621,84.87231442078482,0.001322131969148269,-0.0011961684462900586,-0.00031842546812072713,96420.6906010714,,,
0.29,0.0007414689345951791,-0.0035458458208376515,85.02282678793193,-0.0007064906093686086,0.0014661453553096618,-0.0008879828157057969,,,,
0.3,-0.0009717758366731456,-0.0009323983004816593,85.17695122373172,0.0017184568839046029,-0.0003237373977214437,0.0012940747993115797,96413.99439393148,33.49859475257588,-99.33757794863172,414.4396822041348
0.31,4.8910174701196676e-05,-0.003883498758051044,85.32386178808346,0.0006268838262074494,-1.1427982812737986e-05,0.00017952065176649916,,,,
0.32,0.0022899254836381442,-0.0033728875621452143,85.47261467278378,-0.00010733326716247534,-0.000616035660090997,0.0007016387043999045,96405.81785047313,,,
0.33,0.25428969417922215,0.1469601159791631,85.61196304983508,-0.00013323069644560466,-0.0010897705141690518,0.0006899354296420834,,,,
0.34,0.25960382807995214,0.15529521157424922,85.75175227840607,-0.000383348563665842,-0.004924516839564621,-0.000283399530143409,96399.83099852907,,,
0.35000000000000003,0.26851500365776526,0.15908765336526584,85.86368411471105,0.00015218464387273278,-0.010005987126167919,-0.0004438821975520673,,,,
0.36,0.27774719479071114,0.16034997204254856,85.971123843953,0.0022727928243997655,-0.013226065618793414,0.0008365903784499294,96392.8843219298,,,
0.37,0.27530572450594815,0.17038677744520464,86.09427303770052,0.002365866770051812,-0.018304404182642516,-0.0009488588294501377,,,,
0.38,0.27632553722227843,0.16825154641529239,86.2168979475798,0.003342151590815234,-0.022652375756331212,0.0015165796319985094,96386.08121080376,,,
0.39,0.28164903612054537,0.16669093849378094,86.36015601743935,0.0052321269212436215,-0.02690799361277384,0.0014106938361178423,,,,
0.4,0.28426640894695115,0.1652060047972999,86.51153947774274,0.0071844257138905816,-0.03372371592471,-0.0003937878303177409,96378.22628684096,33.49865134645029,-99.33758442856077,424.6178310177126
0.41000000000000003,0.283305613847243,0.174268071359781,86.84718303956431,0.007966326167263732,-0.035856970865341536,-0.0007786128304619806,,,,
0.42,0.2786436776949354,0.17123235140885648,87.2011999742183,0.006558107135180767,-0.04476082757336595,0.0009801043271167014,96369.33558731948,,,
0.43,0.27084089107816606,0.16789429847895934,87.33041597524989,0.01005637342709736,-0.045713669195561704,0.0011945657855555747,,,,
0.44,0.2668067307466813,0.17293597363718013,87.4458457535234,0.010113255659253157,-0.051557344947107134,-0.0001968486608186266,96361.40767405053,,,
0.45,0.2598230918354218,0.16984381656044648,87.6114058898098,0.009535230720803622,-0.05854870820692085,-0.0021681315147520797,,,,
0.46,0.25276229325373056,0.16655022845193315,87.78040957785802,0.010338361868863945,-0.06081624828206855,-0.0023821809832528917,96349.36171348831,,,
0.47000000000000003,0.23817689882396523,0.16475344837953376,87.88994415607661,0.012344934443827232,-0.06680737740839883,0.0010088065474394418,,,,
0.48,0.22991354912847065,0.15972447005296878,88.00198970341076,0.014684448662890991,-0.07206990784328715,-0.0006701522266305708,96342.63525729708,,,
0.49,0.20722600387448473,0.16142687688940444,87.93473376482912,0.015847914118893244,-0.07572067580153477,0.0009205744837709483,,,,
0.5,0.18724717629241294,0.15538655795874992,87.86539686933592,0.014962066052980231,-0.07910463764000242,-0.002533547227705814,96331.63011704534,33.498597904738,-99.33762216033409,428.86692735786676
0.51,0.16638816153347488,0.13909196136061225,88.0714923594568,0.017505831095766648,-0.08627681397944438,-0.0003382363367395331,,,,
0.52,0.15192668221482455,0.1323631998065762,88.30405933892027,0.018118244891189916,-0.08959023038671447,-0.0013479344012510453,96319.60897462757,,,
0.53,0.12753637805030119,0.12864031053719485,88.50651769271664,0.018332892016985153,-0.0948454285206408,-0.0029312821417794175,,,,
0.54,0.10038385478817474,0.12323981780568771,88.71056468657558,0.01969633299324579,-0.09973450861385723,0.001854239880182106,96309.20088666664,,,
0.55,0.07187792172690179,0.10542292546905575,88.95785347242017,0.019945931441854827,-0.10363817805907749,-0.0008468639087713392,,,,
0.56,0.03849875664830786,0.09394998209620015,89.20134263083484,0.021092051590613017,-0.10640190625323752,-0.0005724505217785241,96297.59919295192,,,
0.5700000000000001,0.006789380921493277,0.07833080884017085,89.40170304262111,0.02327832785361837,-0.11035378802344506,0.0007540201437224802,,,,
0.58,-0.029987852121856572,0.069566727407007,89.60510956993286,0.024313879471455708,-0.11597522411380329,0.0005734699737941811,96285.771632225,,,
0.59,-0.06765284103273814,0.05840878921575566,89.77264046439164,0.023963136883234877,-0.11513370960439724,0.00036643010347904657,,,,
0.6,-0.10186362504851511,0.043897497417663654,89.93465371923807,0.023278461226330698,-0.12126356879395926,-0.0007794022864626255,96272.75505272922,33.4986082529394,-99.33757327790292,436.0627758985084
0.61,-0.1406659569293959,0.025150388411582424,90.07636726059252,0.025080366544807053,-0.12431812674975068,-0.0007187098123817504,,,,
0.62,-0.1863377704923791,0.0057323828693011045,90.217752222659,0.025159746573903238,-0.12515528992797995,-0.0001349297564330222,96260.34083692565,,,
0.63,-0.24210493874275527,-0.008969429522332008,90.41042452972782,0.02630051637785698,-0.1276512064773103,0.0011189730068121525,,,,
0.64,-0.2856499073535863,-0.02712276656130846,90.59166564111659,0.02664265646068317,-0.1301943042397195,0.0015401442356167518,96246.09207243171,,,
0.65,-0.33659103671659385,-0.04429107857294374,90.84577378529266,0.026511538702517833,-0.13128282159756488,0.00019804238001610422,,,,
0.66,-0.3869028705814177,-0.06488647516515003,91.10481418528335,0.025130262973263744,-0.13121019557971245,-0.00106326851302191,96233.13604205336,,,
0.67,-0.4385738466538552,-0.08400837321223208,91.39758093270731,0.026636553081683608,-0.132142196018274,0.0017485074383862022,,,,
0.68,-0.48390011135288,-0.10878060025693906,91.68685566329302,0.02467208776251302,-0.13232689922916854,0.0020666143142288283,96218.69587489692,,,
0.6900000000000001,-0.5487051144691334,-0.1341946669337258,92.01796805593935,0.02463604334350494,-0.1300050785871087,-0.0006668838059905675,,,,
0.7000000000000001,-0.5960274343904667,-0.15652623915951305,92.35625935380953,0.025453976412138885,-0.12881325346569902,0.0003846278783572405,96203.52969292768,33.49861181275179,-99.33762227475647,442.75998087935636
0.71,-0.6484385579391475,-0.17529760335144584,92.72417708574935,0.025177474951174037,-0.1275405569277105,-0.0013496920614352816,,,,
0.72,-0.7052643435216144,-0.1990505905114824,93.0972057154262,0.022330834996671156,-0.12689668090405723,-0.0006714355719916272,96188.5650270542,,,
0.73,-0.7707611164413556,-0.22839766415390664,93.49670287473356,0.022821787856380567,-0.12453949361405148,-0.0007244091548717927,,,,
0.74,-0.8177263991237939,-0.2503314254105631,93.89349150992452,0.022271493943558544,-0.11912020876927525,-0.0004992199266836926,96172.20929191234,,,
0.75,-0.872586670648417,-0.26449862064797297,94.30939581738798,0.02160321258491049,-0.11536748374284163,0.0003237061349058009,,,,
0.76,-0.9278166248711259,-0.2941948538342487,94.7242770702855,0.0214118271606041,-0.11295720652848681,-0.001908059519084416,96155.25737780254,,,
0.77,-0.9874870590966214,-0.31855742391544184,95.14191785583436,0.019784915642582064,-0.10978706685669445,-0.0025332058648685914,,,,
0.78,-1.0359792637689105,-0.3411057410918104,95.55795262313458,0.01833829569027065,-0.10371255707283442,0.0013124786811723203,96139.19490341158,,,
0.79,-1.0872532997437638,-0.360444214158626,95.95496132009605,0.01557451858356636,-0.09940883443976198,0.000747398207688716,,,,
0.8,-1.14050837648315,-0.37878859719099256,96.34303313351926,0.015104057830705979,-0.09129008527850913,0.0008818215327300305,96120.93106040501,33.498617178889376,-99.33760769558691,442.0165885952637
0.81,-1.1853606958436615,-0.40288000624005454,96.70070427133251,0.01484264156739028,-0.08657797371930798,0.00045645955534925474,,,,
0.8200000000000001,-1.2281846788825224,-0.41108198202626783,97.0345019971365,0.013831324762250507,-0.0776190751143068,-0.0003847673893010042,96105.355263325,,,
0.8300000000000001,-1.2693243387953632,-0.4328716480168681,97.33593751429233,0.01353807841357504,-0.07301863858988053,-0.00041227917831934566,,,,
0.84,-1.3048791714904995,-0.44578657592109744,97.62425227316157,0.010623094983175343,-0.06466874337410485,-0.0004477459681350496,96084.95749923728,,,
0.85,-1.3400337216910532,-0.4580062654082503,97.86274413423781,0.009753935659030155,-0.05421231445393074,-0.0001432370206260973,,,,
0.86,-1.3577640603979406,-0.4705393637198101,98.10951988702219,0.0071721161236622585,-0.04855090075242556,0.0005115508843377691,96067.5475515915,,,
0.87,-1.3878303574519453,-0.4767123268831961,98.33603453656089,0.004658998606441916,-0.03856617751019038,0.0018451355620772807,,,,
0.88,-1.406069230052333,-0.48354598057069414,98.54587950215317,0.005369849726239918,-0.030326606817671634,0.00035675973510891087,96049.78008301523,,,
0.89,-1.421737382121872,-0.48329407606295594,98.76964731372725,0.003722351216946383,-0.022351416300342163,0.0004468183902386258,,,,
0.9,-1.437866550149977,-0.4827586140905995,98.98744204624313,0.0010071048611163499,-0.015827654596444467,0.0004992751431045747,96029.38979830063,33.49860189886709,-99.33762840354181,445.20545450139224
0.91,-1.432620662051021,-0.4815586125735699,99.22993720758869,-0.002302490653173995,-0.006606566922794077,0.0012244789684535912,,,,
0.92,-1.4316290293857628,-0.47299418151409595,99.45339464876496,-0.0034765443190838373,0.0002938625056324714,-0.0012342052589635894,96008.1565514519,,,
0.93,-1.4210600018187585,-0.4699871972991118,99.67245050485714,-0.005698860393169932,0.009713827806927186,-0.00023614545118376352,,,,
0.9400000000000001,-1.4051526723280074,-0.4534280942366674,99.88153460749473,-0.005374789861560065,0.01729907895405073,-0.0009561043737104814,95987.42124697744,,,
0.9500000000000001,-1.3834945417049815,-0.4410101196083579,100.0689563731662,-0.007844132148007534,0.02461983342512544,-0.0006890807101148713,,,,
0.96,-1.361057605009264,-0.4318870544874423,100.24767602014016,-0.008518767605977263,0.03346879803593819,-0.00047223003856701354,95966.94183008693,,,
0.97,-1.332988249360005,-0.40830572734307813,100.39570748814873,-0.010597670546387992,0.04048237468562407,-0.0012854745953862722,,,,
0.98,-1.2949379450918455,-0.3866982730607062,100.53629327058316,-0.013622792687074007,0.04499583844059707,-0.001736210663825079,95946.18887552517,,,
0.99,-1.2529538452454423,-0.3676693055087432,100.61936722938192,-0.013536195092071624,0.050662375719674815,-0.0010103694004817523,,,,
1.0,-1.1998662611496587,-0.34225864881452,100.6906955729433,-0.014414823278998878,0.05520896257698147,-0.00017922713337868089,95922.69368442452,33.498636977798,-99.33754621085475,459.96595621451087
1.01,-1.1538204353208485,-0.3071043290366411,100.74635014015023,-0.013110304497310562,0.060113429611727213,-0.000183879537384914,,,,
1.02,-1.0958774460971152,-0.2777889363950633,100.78846504016875,-0.01522887043383008,0.06140945900647393,9.504140449545432e-05,95900.43771916676,,,
1.03,-1.035443584268749,-0.24196213378462245,100.82818038981094,-0.017955151986385146,0.06574404326207633,0.0003742447699340907,,,,
1.04,-0.9683347677104611,-0.21164125983977264,100.8832427556362,-0.01644705637466306,0.06717877762665292,0.0006970309017117766,95878.02378792613,,,
1.05,-0.9073223722408348,-0.17495729722468178,100.94611136407975,-0.015432803367613502,0.06843646305007176,-0.0009730190309402445,,,,
1.06,-0.8429431619774611,-0.13769155030200475,101.01450011355486,-0.015652734430869248,0.07222210828934762,-0.0016141718922858168,95853.05810167632,,,
1.07,-0.7649136724255383,-0.102471967015804,101.1206629768023,-0.013401157785957282,0.0695533770146384,0.000789820223637068,,,,
1.08,-0.6990092506589217,-0.06591174738948541,101.2274716632316,-0.013020375011526537,0.06741428058986268,-0.0019799329180382546,95828.71349850437,,,
1.09,-0.6277116086327792,-0.03527068087305661,101.34538199339018,-0.017286114232869097,0.06587739722142842,-0.0018609923205368637,,,,
1.1,-0.5680611034437716,-0.003918495929934315,101.46268024287659,-0.01412138252679534,0.06092052069463494,-0.00129855546662405,95803.04207558525,33.49857855704287,-99.33756234683918,465.837845753083
1.11,-0.49778605243697577,0.029081102105583807,101.57570897454161,-0.013932851080667445,0.05820909621069264,0.0009845657114322989,,,,
1.12,-0.44212324400363956,0.05834466773641028,101.67451451461045,-0.011719905044106835,0.05288299850940004,0.0018260674977368175,95778.93148501485,,,
1.1300000000000001,-0.39201837555716956,0.0825136139079523,101.7626175543217,-0.011616647661069868,0.04619020612886681,0.0004355212689956115,,,,
1.1400000000000001,-0.3321962007873952,0.10094615451127092,101.85613164485147,-0.00904115299609697,0.04213466290661219,-0.00017149222603615995,95753.60414929772,,,
1.1500000000000001,-0.2921730467513666,0.13333306351397853,101.92403887155214,-0.008721472149853624,0.03485650382825054,-0.00017507962662646038,,,,
1.16,-0.2547568789846491,0.1487545519080054,101.99691512323072,-0.008009343733766421,0.026979792820268796,-0.0008803503452364638,95726.48497755534,,,
1.17,-0.22414457520606695,0.15908753336021567,102.06586486884022,-0.0037786849259241117,0.021145090286496287,0.0018982499141906725,,,,
1.18,-0.19715764592758567,0.16905459089126126,102.14392203813655,-0.003622290076006924,0.014318820478436906,0.0004852477486889979,95700.4640329694,,,
1.19,-0.18516667112779225,0.1728587462494714,102.22755576089055,-0.0024574103469131967,0.005625437670114225,0.0007058955993454707,,,,
1.2,-0.17802557791366488,0.17440622359648536,102.31149523207496,0.00014641323035794688,-0.0014705562220480642,-7.847884678255506e-05,95672.52817712823,33.498633306558105,-99.33765133705279,485.3422762286514
1.21,-0.17803017752302705,0.1716005273383015,102.40354947870284,0.001474674044191003,-0.010146391340924016,0.0004259679455820149,,,,
1.22,-0.18595299826685274,0.15932325409972695,102.48884475520723,0.0010001067919919524,-0.01768032851162554,-0.0014819286405025572,95645.65960125318,,,
1.23,-0.2125081320622045,0.14477893862604788,102.57091232031098,0.005790828457130255,-0.023966274563742795,-0.00029927285502656366,,,,
1.24,-0.23732859844346366,0.12723765815108914,102.6461261578384,0.0050304548073677605,-0.031580919428694246,0.0012988615972224767,95616.78617556219,,,
1.25,-0.2767706883797934,0.09831228798380845,102.71062127047416,0.006603623034082074,-0.037124614869104705,-0.0007026401230393188,,,,
1.26,-0.31811787686781196,0.08485285334402334,102.76634237548114,0.009189529202366698,-0.042947137648046294,-0.00011443915857147125,95586.72652190716,,,
1.27,-0.3741237507583027,0.047313811693070064,102.81565620170204,0.00671072682144893,-0.045295730833553406,-0.0006010180582867183,,,,
1.28,-0.4320645266261308,0.01742591973418489,102.86805271161738,0.007875531662628466,-0.052749230528152426,-0.001401375778057515,95559.19057351105,,,
1.29,-0.49231019795414493,-0.016114359252928225,102.91892787810878,0.009811194515027785,-0.056922977054262275,-0.0003224078590892811,,,,
1.3,-0.562840052496921,-0.0513077014917228,102.96787042049242,0.009872492236198948,-0.05874172468043534,-0.000896128062952854,95528.73678081084,33.498656719204696,-99.33761274974339,490.22145276601043
1.31,-0.6282081594692689,-0.08654122689666019,103.04093980829832,0.01049982536887356,-0.060022367971319775,0.0010434762398950552,,,,
1.32,-0.6994875981571832,-0.12503672654283177,103.11497397613178,0.008764086622167993,-0.06025004639217192,0.0009507968808752256,95497.90942024456,,,
1.33,-0.7714962808390056,-0.16429083281754583,103.21427532463943,0.010219150630757075,-0.06059654160186857,0.0003018964206088335,,,,
1.34,-0.8416284664330905,-0.2008544348816716,103.3139508503774,0.010927736228152142,-0.05688719673110069,-0.0006442296529443328,95468.74971027319,,,
1.35,-0.9101474715429827,-0.23535899289790416,103.43291018066354,0.009452175768989907,-0.05477847151835017,-0.0003541862495006249,,,,
1.36,-0.9744621420477699,-0.2686766551676833,103.55065230101005,0.007987581021095489,-0.05143427187284962,-0.0010234912762928268,95435.97104394234,,,
1.37,-1.0283446034346302,-0.2916791728189051,103.69299874280743,0.00730856282512268,-0.04798342721235739,-0.00010038564832082038,,,,
1.3800000000000001,-1.0908126668507554,-0.32267008259167823,103.82767310412113,0.006791441086521719,-0.03935311477514735,1.4868033291361574e-05,95405.50418759769,,,
1.3900000000000001,-1.1338836622805961,-0.33697452587068927,104.00273906227059,0.005070681524394607,-0.03688506642889915,-0.00047821806713567265,,,,
1.4000000000000001,-1.1682247044087954,-0.3487378486681302,104.18125834420108,0.0057491369646617795,-0.03225608410698892,0.002373304127380404,95372.30223721355,33.49866831310851,-99.3376659173405,513.2081869867066
1.41,-1.203794549699805,-0.3640101333931608,104.39731717449843,0.002856047531970302,-0.02716093828816883,0.0011239433011326452,,,,
1.42,-1.2186784608780277,-0.37252002215354024,104.61458418870164,0.002333804873507375,-0.018921966977971737,5.09089215852546e-05,95338.65865791251,,,
1.43,-1.2299580243061135,-0.3737767733080571,104.78250678201617,0.0016842194756044742,-0.014586197218545016,0.0010352637213548,,,,
1.44,-1.2271601759717579,-0.3729917081794493,104.93939290239962,-0.0005757863414594045,-0.008949460913934698,0.0006770787342380017,95305.93202784802,,,
1.45,-1.212620286199889,-0.36033934427449066,105.01279375523274,-0.0013981163919655102,-0.0033435944344302167,0.0007807914807298034,,,,
1.46,-1.198254551119368,-0.3409429483612282,105.08458934815818,-0.0028872594766754145,0.0020742197927697712,-0.0013030388698302147,95271.58870341984,,,
1.47,-1.167560055595647,-0.3195133810055573,105.05100738999838,-0.004642207513350691,0.007855043751173473,-0.0008021163619917356,,,,
1.48,-1.1337816851134912,-0.29684197400661655,105.02377260960571,-0.004852817475790706,0.012222941074486186,0.0013796197574218712,95236.80200575903,,,
1.49,-1.0834176756552234,-0.27369466723925306,104.9225088472699,-0.005598720578686255,0.017221369292517198,-0.0024964819361512065,,,,
1.5,-1.0313790344197669,-0.24549668979760494,104.82397597902091,-0.0065959630757896365,0.01887017509533169,0.0008368367998858827,95202.10330277437,33.49863770666962,-99.337582089506,529.2199750240959
1.51,-0.9776517511109293,-0.20394743832119602,104.75882996747418,-0.006605317635583401,0.021016847076338347,0.0020733609423487244,,,,
1.52,-0.917903548983217,-0.17143801618085108,104.69532370176336,-0.005629753852948834,0.022429412117608353,0.0005591043552131709,95165.17469472691,,,
1.53,-0.8595409333855,-0.13291751684768163,104.67309544099263,-0.006403841905987315,0.02270941044979896,-0.0013330726786094677,,,,
1.54,-0.7992150058699813,-0.10530181969973773,104.66644663803498,-0.0054373931994552965,0.021919970644675834,-0.00010532583758285178,95130.38640040868,,,
1.55,-0.742296560062754,-0.07250216921759708,104.66635009812215,-0.004982012420565324,0.02134396698920845,-0.0009384932684668001,,,,
1.56,-0.6841242086091972,-0.03749832976590664,104.65704308262836,-0.004848590777484308,0.020495631421690023,0.0010660890424915252,95093.46336087136,,,
1.57,-0.6320302725178402,-0.02199359389740692,104.63171554177687,-0.0055231070322847185,0.01575175103561209,0.0003523772178473714,,,,
1.58,-0.589280181844413,-0.0018512688994901357,104.59381353524371,-0.0027139374994190725,0.013081228957391921,-0.0011125124367690389,95056.33788443524,,,
1.59,-0.5572144025862399,0.017482599844668916,104.49966519899662,-0.0019542534007528783,0.009280823945775247,5.6067980780776856e-05,,,,
1.6,-0.5362602823973005,0.03194273919700049,104.40665409105283,-0.002791265690791054,0.003937064669924924,-0.0007867399024866879,95018.71364697575,33.49864278169228,-99.33764358896302,552.5117779231688
1.61,-0.515896321999484,0.04043601938910921,104.2433465888653,-0.0025493817795435416,-0.0005338838789333914,-0.00042494941837774503,,,,
1.62,-0.5182259696689925,0.039101455962758734,104.08035359129462,-0.0018431694823453342,-0.0044231876015817335,0.0016429919752245254,94980.78299442709,,,
1.6300000000000001,-0.522521021557117,0.03385952425048553,103.88783542488208,0.000589456857605836,-0.009628137163356892,-3.360134805238487e-05,,,,
1.6400000000000001,-0.5288326011276717,0.026393831220508278,103.68186336424405,0.0012935261443716177,-0.012503911721743902,-0.0004718136166588683,94942.72645105617,,,
1.6500000000000001,-0.5504366075558,0.010895842452188925,103.48956392058288,0.0015865103449693764,-0.017393477474590528,0.0010418279349480191,,,,
1.6600000000000001,-0.5901196265903318,-0.01614716414279016,103.30246481024301,0.004115868674088405,-0.022109762231678515,0.0007528008792223209,94902.79536591498,,,
1.67,-0.6215967133850905,-0.03466150417263741,103.12637059114759,0.004228368027074371,-0.02258980680416986,-0.0007503204543349068,,,,
1.68,-0.6715467426372567,-0.06057463070206817,102.94920305967099,0.002049096734980005,-0.02409847327646713,0.0013860113855250589,94863.30481235411,,,
1.69,-0.7180498422349919,-0.08888079329452271,102.78313026465096,0.002273134275344143,-0.02707469102225276,-0.0005304477193737771,,,,
1.7,-0.7710014388683122,-0.11308902191616396,102.62196304006319,0.004146565117844929,-0.02715665074958698,0.0006653893736492271,94823.84391022411,33.498633634682854,-99.33759255306978,568.3485092830311
1.71,-0.8188847591567786,-0.143754949789114,102.46135959775603,0.0030723856572728637,-0.027749443467237272,-0.0007324046830694289,,,,
1.72,-0.866899700188317,-0.17062830754709224,102.29848469090025,0.004845966122510668,-0.027392100764544736,0.00036157382306890065,94782.67989327869,,,
1.73,-0.9199844411910371,-0.19608102575646394,102.13250557381157,0.0015153998576075585,-0.02718017206480235,-0.001088233041753494,,,,
1.74,-0.9619739668909192,-0.2074175218021892,101.97740497762689,0.0012949940065309247,-0.021497039792588536,-0.0006314123795373294,94742.77013915253,,,
1.75,-0.9954867046553132,-0.22846871309839645,101.8397809163902,0.0024692280835890866,-0.02156747922586981,8.164128491171133e-05,,,,
1.76,-1.0301364339663202,-0.24596874616264278,101.70243007313145,0.001860241742959314,-0.0181263335068403,-0.0004003796985754691,94697.87307379417,,,
1.77,-1.0441788653198367,-0.24952364298063628,101.57947305768683,0.0015133044402947647,-0.01540885384413775,-6.233246171264766e-05,,,,
1.78,-1.066528711877553,-0.26156749141517033,101.46399867134768,-0.0006883548692340171,-0.010543713333389519,-0.0001174376209497348,94657.56047055707,,,
1.79,-1.0564693379525094,-0.2572775379657758,101.37191642929932,4.98215755154839e-05,-0.008820383270814133,-0.001178778671258301,,,,
1.8,-1.055074524942458,-0.2511160672639017,101.27550529862167,-0.002151938322287374,-0.006493733296150973,-2.75769145498644e-05,94614.69821354006,33.4986417708828,-99.33769295672595,579.8339328900579
1.81,-1.0414845454443815,-0.23859135648070817,101.16357505947738,-0.0018912215866503847,-0.002053899969407035,0.0007492712466529487,,,,
1.82,-1.0215656380502731,-0.21767711658774472,101.06297964000422,-0.0022239334277122423,-0.0017318880247672495,0.00101654129034887,94571.77205594255,,,
1.83,-0.9918263434318806,-0.2023015577527932,100.90448477719997,-0.002189792682021608,0.0023376575004378014,0.0005659746374714372,,,,
1.84,-0.9640302866155472,-0.1898466258456192,100.74023138948337,-0.001699287576670998,0.0016066344329192994,-2.2155872837514932e-05,94527.88176948467,,,
1.85,-0.9327034084879426,-0.16477829165589444,100.51982690503617,-0.0022857201573461498,0.0033537548666708193,-0.0006185375408925462,,,,
1.86,-0.8940647880285312,-0.13843674030648215,100.28740266186584,-0.002327524838685694,0.0049708483074470755,-0.00064171101124926,94484.81701070619,,,
1.87,-0.855811329772494,-0.1186529212016514,99.99478718684266,-0.0007730349189261005,0.0029734671500111164,0.0009067852647732347,,,,
1.8800000000000001,-0.8189611060144497,-0.10116187081293102,99.69947512078474,-0.001809113742204202,0.003777638305857493,-0.00095860609370554,94440.43938224591,,,
1.8900000000000001,-0.7889847657168406,-0.08671280262040303,99.3767899046159,-0.00021441694669093294,0.0025783643282105764,0.0001550402555332624,,,,
1.9000000000000001,-0.757061159486655,-0.07104923043596749,99.04711698949488,-0.00162914687419098,6.256932012561878e-05,0.0005507711698290248,94394.04983220864,33.4986148174618,-99.33765688599698,598.9631360424187
1.9100000000000001,-0.7434301567016314,-0.06638765086497093,98.69830826594955,-0.0014477516309880122,-0.0017095164215057868,0.0017087908018805944,,,,
1.92,-0.732182199567006,-0.05638094831077206,98.35252980966929,0.0007995080477401436,-0.003799620847520366,0.0012231650934210506,94347.80842866714,,,
1.93,-0.7326699882609015,-0.058026905670829056,98.0253598257295,0.0007958774346228119,-0.005852804254595992,0.00042147219014315474,,,,
1.94,-0.7292264180967857,-0.05917775478255764,97.69683060974204,0.0018288034486103242,-0.008604166322900243,-0.00024143075832787025,94302.23955415023,,,
1.95,-0.7384637149591902,-0.06119390994503098,97.37512887135308,0.0005379090495150524,-0.010242984696970351,-0.00044690789346644376,,,,
1.96,-0.7503512769105598,-0.07173539060835867,97.05629268050322,0.001857478127211635,-0.010399656076081336,-0.0005557831251297418,94254.78813838349,,,
1.97,-0.7745830953119268,-0.07963065229877378,96.7006820847457,-1.7973290115263097e-05,-0.013863074736823544,-0.0002389773072604241,,,,
1.98,-0.7977760270454731,-0.10245588040863904,96.33762731613025,0.0029149017301820113,-0.012904582331052765,-0.00025246342974928935,94208.30431197956,,,
1.99,-0.831786216296321,-0.11458012588343171,95.96850436489547,0.002386623247828316,-0.015214183880488709,2.8411000828051538e-05,,,,
2.0,-0.8543830315910418,-0.1253333696685753,95.57963669723316,0.002046503706203988,-0.014741828591479588,-0.002954717488338429,94161.74051361032,33.49858131563264,-99.33766435655447,602.802254986482
2.0100000000000002,-0.8916497565299593,-0.14597778474269874,95.17885327060985,0.0028963895584408427,-0.013334049973558377,-0.0008266149856572731,,,,
2.02,-0.9117004489113933,-0.15926623583228064,94.78093710720901,0.0017114203087915108,-0.014366686343949686,-0.001247259319047302,94114.59582521484,,,
2.0300000000000002,-0.9357854015895389,-0.179343773695245,94.34618327771875,0.0012513553290891119,-0.014632220703027643,0.00033072557853922236,,,,
2.04,-0.9521874030418194,-0.18087598626035195,93.89931970815773,0.001656070307005476,-0.010678986767981655,-0.00040146990464917014,94066.55499150245,,,
2.05,-0.9684199265738305,-0.1869775515033314,93.37660574127176,-0.0006067135215462934,-0.012084837192220432,-0.0004172826191956595,,,,
2.06,-0.9754928275229193,-0.18665811646613661,92.84527567658486,-0.0006572860596984988,-0.01132271719325888,0.0001307310326004332,94015.39864385406,,,
2.07,-0.9828253418011526,-0.19158167184681119,92.21384579587601,2.2931637231826748e-05,-0.008421384646845704,0.001046816085790923,,,,
2.08,-0.9697290877287726,-0.17896165041374174,91.57871855791123,-7.380555654514285e-05,-0.006777201125107606,0.0006195729815611994,93967.92694957934,,,
2.09,-0.9681426252724269,-0.1831951364718448,90.87210396592756,-0.0011524174226926129,-0.005880572725104472,-0.001106060757867711,,,,
2.1,-0.9576950447998263,-0.17029071412579946,90.17233433015693,-0.0024520954453423507,-0.004154724709600756,-0.0003208213784223997,93917.21361493126,33.49866038800369,-99.33766034590971,633.4513932281823
2.11,-0.9457400747472391,-0.1547702521807456,89.43817703986194,-0.0008867364390868429,-0.004531060556474959,0.001209055568764096,,,,
2.12,-0.9214527671792717,-0.14393529556635648,88.71208075228385,-0.0005516453247803445,-0.0029257894208732406,-0.00039172545110497916,93866.10848069907,,,
2.13,-0.9063309980424551,-0.1304307453248059,87.99220196438556,-0.0016491998112331127,-0.0016995132144733954,0.0005604834325861182,,,,
2.14,-0.8883565398125965,-0.12624265334945325,87.27437954308927,2.145331606065036e-06,-0.004196413997211356,-0.0009699261658833486,93816.9078766638,,,
2.15,-0.8720268114936998,-0.11195847139652479,86.61946860915546,-0.0021947080182263346,-0.0031662874278066936,0.0011935903771156681,,,,
2.16,-0.8686346964139746,-0.11197992871986538,85.96891180407718,-0.002346832956818189,-0.005715185351705145,-0.0005626051993914785,93766.13735345185,,,
2.17,-0.8496669905352292,-0.10485541577408244,85.34387590306167,-0.0033918693079196586,-0.003284077461819437,-0.0017150087264197257,,,,
2.18,-0.8477460485831066,-0.10327308624504404,84.72763209802278,-0.00012567437153233288,-0.00537167177176336,3.74435149497836e-05,93713.80648047567,,,
2.19,-0.8459729239171621,-0.10208969797495661,84.1176573618365,0.00039363927927139344,-0.005116632098349238,0.00010035931299580021,,,,
2.2,-0.8415419330399045,-0.10494825904957374,83.50783908196046,-0.0009039669270588922,-0.009082587249939905,0.001599843373977754,93660.5590673692,33.498628255548866,-99.33766619113929,662.7158828997821
2.21,-0.8606778649661646,-0.10651225667860907,82.92037662424023,0.0006059608935039952,-0.007719675943027783,-0.0006710638815814762,,,,
2.22,-0.864480250034185,-0.11363144974413271,82.33667351897779,-4.371837741123843e-05,-0.008864375314416084,0.00032417985285203944,93610.80343677233,,,
2.23,-0.8804978737311245,-0.11763630710277391,81.75532072695523,0.0003769100432847845,-0.0097779321284353,-0.0013998968397474327,,,,
2.24,-0.895891528374213,-0.12798432957102832,81.18472256298524,-0.0005741893969753989,-0.008886566133777177,-0.0004169833633292052,93557.65060154181,,,
2.25,-0.905786702074553,-0.13004868111971668,80.61519089562027,0.0009877251836098722,-0.011404830093337476,0.001815433773026387,,,,
2.2600000000000002,-0.9233205185978396,-0.14291173829020093,80.06346083182672,0.0012253962967149392,-0.010602358081612502,0.00023021509654577778,93503.97369341433,,,
2.27,-0.931894263065348,-0.14940072446935643,79.55520952543417,0.001049545593142708,-0.01096804750375285,-7.650329092249879e-05,,,,
2.2800000000000002,-0.9455764395035569,-0.15164185759935245,79.05491465347012,-0.0007030556456091815,-0.012067765450955925,-0.0013090395681861018,93451.05649648121,,,
2.29,-0.9498085997907063,-0.15222754617969605,78.61800142178772,-0.00039925206779979996,-0.009491395842238619,-0.0010739251686518916,,,,
2.3000000000000003,-0.9639579161589524,-0.15813497859701361,78.179189603415,-0.0009869013410681428,-0.00909797940830092,-0.0001310055025231807,93397.31670605007,33.498683224011785,-99.33765886247713,677.0686811131782
2.31,-0.9573434445660588,-0.15958676304870417,77.69533203638186,-0.0006556955672049996,-0.008285985492476713,-0.0018151503050444053,,,,
2.32,-0.9560904710294011,-0.15994967776173347,77.19266127839305,0.00021558608770286166,-0.008484817822773737,-0.0010496198409669895,93342.19943290557,,,
2.33,-0.9553220272077966,-0.15438105202199767,76.5657605819926,-0.0015936377129002217,-0.006395688604297931,0.0017406089122627255,,,,
2.34,-0.9516641476634321,-0.15091913105126975,75.93229209699253,-0.0006595368726639673,-0.0080528087936712,-0.00012858023120653522,93288.10163681368,,,
2.35,-0.9359165156067963,-0.14639766833091541,75.2949285987379,-0.0011899056375892444,-0.005075775342068554,-0.0001684147414905881,,,,
2.36,-0.9322195367001846,-0.1348274800477397,74.65910539080582,-0.0030468945885166313,-0.006852674575548042,-0.0008518784045020022,93234.32679088143,,,
2.37,-0.9263774504291922,-0.12730179890802812,75.77741272835581,-0.001871797359870008,-0.006650304234810076,-0.0012462284669797427,,,,
2.38,-0.9166299408870092,-0.12459534736423311,77.04859000081653,-0.0009745111077281079,-0.006040805393914203,-0.0019085182426956655,93178.26846650992,,,
2.39,-0.9138360177745475,-0.12513286595063744,76.95126286972791,-0.0010183159297224146,-0.0062618251328416365,-0.0021981765446735693,,,,
2.4,-0.9165873183842325,-0.12710817904197624,76.74021353984648,0.0005900584399670613,-0.007741520663820866,0.00047122842386363296,93123.00044871046,33.49866361247368,-99.33767923686356,698.9723477890421
2.41,-0.9144040750150108,-0.12454647405206459,73.04754581039441,-0.001773989918165263,-0.007139011770442319,-0.00019506847575724971,,,,
2.42,-0.9132846359055403,-0.1287230641926065,69.06057661610748,-0.0012478179008040809,-0.009837868137624826,-0.0006434541247741545,93065.9727074524,,,
2.43,-0.9143991007637616,-0.12181109726272671,64.32418751221844,0.0007110953319187567,-0.006352566983878062,0.0002740504857810628,,,,
2.44,-0.9175465995384671,-0.1280824387542604,59.537595260451766,-0.0014313232458334668,-0.007478970244507798,-0.0015001664352656526,93011.01594507908,,,
2.45,-0.9307650257466068,-0.12775902405652292,52.789731190555614,0.0005301324574657712,-0.009485879408604595,0.000677038533531815,,,,
2.46,-0.9517034055406117,-0.12870183046208974,45.87086777448237,-0.0011376478746570955,-0.008499768816955737,-0.0017976459533479874,92954.9126565321,,,
2.47,-0.9628061420853923,-0.12944350211018602,40.42132541084681,0.0009353351989742659,-0.00815752960110932,-0.0008671637913812074,,,,
2.48,-0.9702697926334514,-0.12715535064834124,35.097259983763635,0.0015487388289003455,-0.007140310066154071,-0.0007519919093536326,92897.06771636405,,,
2.49,-0.9844882233707505,-0.12886871324959123,33.28032264267912,-0.0008086775022863828,-0.00862864103030845,0.0003607536401649039,,,,
2.5,-0.9838419643156419,-0.13982242395492336,31.764453694684914,1.0159532083736916e-05,-0.006425430702726304,0.0007879283557849183,92841.97716288705,33.4986585652061,-99.33769270412027,729.5497534307017
2.5100000000000002,-0.9925340662646109,-0.13846633824005816,31.100039319793165,-0.00010710435480678585,-0.005562638900279223,5.491067409339814e-06,,,,
2.52,-0.9886165650271466,-0.13816042033682885,30.505535012628666,0.0018629282825527607,-0.00545664033044782,-0.0007728187629651317,92783.99227663147,,,
2.5300000000000002,-0.9791651423021828,-0.13707964662313418,30.08759888169621,0.0007800961018512436,-0.007234836871078939,-0.000582823744982872,,,,
2.54,-0.974942886405296,-0.13608931832668664,29.687339917800653,0.0006381628968054352,-0.006214088396531976,-0.0003355763252779922,92726.84333216885,,,
2.5500000000000003,-0.9702703500682196,-0.13126911952168824,29.277104438594986,0.0006752203390956338,-0.005674123052339545,-0.0005545303028594125,,,,
2.56,-0.9640811981061774,-0.1328264139363585,28.86858892657568,0.0007121829544623321,-0.005379352760260369,0.0001756324459477081,92668.3992529253,,,
2.57,-0.9570555396393843,-0.13345056546568723,28.59331868081513,0.0014735462527589818,-0.005905930528434585,0.0012874675491350725,,,,
2.58,-0.9508463019830717,-0.13055244287216058,28.33972289811989,0.0016096947392468192,-0.0050918498474053185,0.0009725937968172784,92611.50698349357,,,
2.59,-0.9483592297587666,-0.1328751490544074,27.974366812737795,0.0017299388290520547,-0.0058583291170674874,-0.0017803526567067485,,,,
2.6,-0.9495871170625139,-0.13174333069401634,27.58768841184036,0.0011889285291167653,-0.004033935364225761,0.00046054018178770463,92553.4669450401,33.49863131621968,-99.3376940601274,759.2500270293523
2.61,-0.9473319621398475,-0.13252815381835378,27.18552251166569,0.0018754100261266456,-0.0050538371603981395,-0.00032526176622133034,,,,
2.62,-0.9478183010758297,-0.13053338088923236,25.337405590967542,0.0012489667387264002,-0.00741391404089809,-0.0004066149101835257,92494.8249674104,,,
2.63,-0.9540174480402414,-0.125117159080401,26.39263796907727,0.0003417403919827079,-0.00645239552116089,0.0002602192009429423,,,,
2.64,-0.9567231572739838,-0.12988784635181602,26.010884611631315,-0.0013021022709360165,-0.006511499829794729,0.0007751137569456453,92438.24259332566,,,
2.65,-0.9649265612204037,-0.12705548357361166,25.63358792519009,0.0008428002270365235,-0.006670137882228826,-0.0008637513616150911,,,,
2.66,-0.9765174163780506,-0.1326415413132576,25.257575482152685,0.0021018368879063684,-0.007284298469957228,0.0019978103927424593,92378.56112981567,,,
2.67,-0.982266424578755,-0.13408872343979716,24.93005667043708,0.0015425886555981195,-0.00880826791330787,0.0010201799559985303,,,,
2.68,-0.9817265755290301,-0.13325638066797255,24.597665934989365,0.0011070173963996972,-0.00836037012034129,-0.0020279315473662285,92321.56156962714,,,
2.69,-0.9826075738086648,-0.13183794856377462,24.307066847219893,0.0009042466273843121,-0.007194971260227502,0.00045137620482401416,,,,
2.7,-0.9886135401701619,-0.13410109723979483,24.009858800033665,-0.0007466759494542199,-0.00813119809199665,-0.0022173597321030396,92263.60146340464,33.498629511148835,-99.33775077836923,787.1010658441983
2.71,-0.9916731235604636,-0.14148660585069145,23.717258146505046,0.0005345544397191277,-0.006891155194931934,-0.00023306352330041604,,,,
2.72,-0.9952068592121137,-0.13067937902725493,23.417963207180577,-0.001706758441041216,-0.006086869127036113,-0.000926369797430922,92203.87154334284,,,
2.73,-0.9885634196961071,-0.13127041343424828,23.12434731111383,0.0008765342122146808,-0.006568938806537048,0.000197372653058686,,,,
2.74,-0.9916478633028156,-0.13668555279312067,22.827885649189206,-0.0004912285366968912,-0.007567769707093654,-0.0009746002085718326,92146.14180813344,,,
2.75,-0.9841579642045533,-0.13866788089630697,22.5321459283768,-7.110418966914996e-05,-0.0062453610585302645,0.0009389110726708335,,,,
2.7600000000000002,-0.9857060505153067,-0.1378281341612833,22.256614021769952,8.957600220285905e-05,-0.007151595697990902,-0.0005177508814650925,92087.23660939006,,,
2.77,-0.983102495716266,-0.13232144229260598,21.96327170120092,0.001103452013845367,-0.007394458162221094,-0.0003370683509350357,,,,
2.7800000000000002,-0.986527466589572,-0.13294298453510578,21.677325172189697,0.00025573117701206585,-0.0059790343303626646,0.0005467552099552141,92028.56350305908,,,
2.79,-0.9822719359459414,-0.13140564738991595,21.41640796505664,0.000698241415185278,-0.005823973624550266,0.0012156514209698142,,,,
2.8000000000000003,-0.9836605475634207,-0.13612476374525054,21.1600320220313,0.0020742597842725655,-0.0044779090123860145,-0.0013660879683840919,91970.92237511437,33.49869460539612,-99.33776207616735,813.6440930799373
2.81,-0.9835864574891685,-0.13533032665666972,20.921790556505492,0.001034232218263422,-0.008176743015194117,0.00048480448428714617,,,,
2.82,-0.9878098897544085,-0.13620415496113275,20.686182628378592,-0.001010318725329679,-0.006974008160326968,-0.0006310289151020212,91911.71516889377,,,
2.83,-0.9861039704625956,-0.13612560142143051,20.449563649446468,0.0010580148548065492,-0.005574226122129131,0.0005336806681845699,,,,
2.84,-0.988885463420839,-0.13117137072953472,20.207065176384585,-0.0014965892305280999,-0.007408722961759818,-0.0005911600994177975,91852.72031434787,,,
2.85,-0.9931507064570924,-0.12796159791944306,19.999062472797338,6.438156162066021e-06,-0.007006170815194511,-0.0001788058612366388,,,,
2.86,-0.9956512155459563,-0.1363978096463227,19.79941181806001,0.0014067622895204224,-0.006018887140728318,-0.000226349032265277,91792.66095170366,,,
2.87,-1.0027912185274992,-0.1373991453884903,19.583982034385336,0.0017201998338543388,-0.007322156751333603,-0.002143748418496992,,,,
2.88,-1.0034737615321123,-0.13857585257348945,19.372732345007485,0.0021523779282070802,-0.00643688163708654,-0.0009345782525314605,91734.48066485392,,,
2.89,-1.0020206899198405,-0.1389148060485067,19.110219970260278,-0.0009150118760265153,-0.007269190892095788,-0.001728669516955503,,,,
2.9,-1.0082136630085423,-0.13490876226458187,18.854896258650363,0.0013977869282715727,-0.00574047378428095,0.00036436874274149033,91674.18223764977,33.49865017589383,-99.3377371497777,838.9706270719121
2.91,-1.003606721220238,-0.13167089239197016,18.587985235150118,0.0002003771999351676,-0.006031806199538793,-0.0004470170078511348,,,,
2.92,-1.0086936055235616,-0.1355488128386323,18.326602778478197,-0.000482754036467947,-0.0061125164553060725,-0.00044987315007286364,91614.99190124693,,,
2.93,-1.0114789319051725,-0.13763223470436,18.040029996541463,0.00032633037834726725,-0.008036229261676063,0.00114282607278199,,,,
2.94,-1.0102017301112893,-0.1402861752498635,17.746299451603917,0.0006551709793773044,-0.00793124888779241,-0.0012998977736808379,91555.85139534334,,,
2.95,-1.0084003076603705,-0.1377051274343066,17.43132300009938,0.0016759752005289588,-0.006950759144078597,0.000642284675924712,,,,
2.96,-1.0088635994710373,-0.13883341696417664,17.109321909637636,0.0014915382329548652,-0.006240202203467021,-0.0019456859970679021,91495.74103561298,,,
2.97,-1.007012796905756,-0.1378359538086428,16.794787961671805,0.0005542661323860763,-0.005325687988891114,0.0007089562637952423,,,,
2.98,-1.0112268837595413,-0.13166724474370564,16.48008608649813,-0.0009131057946063564,-0.00667899532209277,-0.00033857598620696015,91437.54538051422,,,
2.99,-1.008293588329205,-0.1355782038915582,16.144539699204913,-0.0001247489126961663,-0.005960123498597862,0.001180842115554675,,,,
3.0,-1.0149953396746392,-0.14184689249750693,15.809474417895158,0.0019354625730973003,-0.007244553449836234,0.0012096309817298068,91377.44395427417,33.498688530348915,-99.33778606101941,865.9398105872503
3.0100000000000002,-1.0108287566224698,-0.13683742641154706,15.474134568259197,0.0019190256369138554,-0.006509691294169432,-0.0014148070063414577,,,,
3.02,-1.0177651476650629,-0.13529737332102154,15.148085450636103,-2.1076940373234115e-05,-0.006486797304893721,-0.0013156686885381023,91316.95327734383,,,
3.0300000000000002,-1.0177439400903787,-0.13768272705312462,14.822898606105358,0.00010843179906154689,-0.0054626279263232155,0.0005810487349251964,,,,
3.04,-1.0229816637429487,-0.1369216507426651,14.507529222601013,0.0015020269536859168,-0.006151998868748773,-4.8927859078446693e-05,91256.34516842158,,,
3.0500000000000003,-1.0201175594827732,-0.14071849891975163,14.202951635613074,-0.0003168514158628701,-0.006443586432428758,0.0004719545607994116,,,,
3.06,-1.0247025536958987,-0.1337223543556285,13.904204185177957,-0.0010160376689135817,-0.006569114720141753,0.0005611603554770016,91195.55677882915,,,
3.0700000000000003,-1.0268709693897555,-0.14283132101804275,13.603836971567782,4.983719926198718e-05,-0.008588519970151625,-0.0014961406480035707,,,,
3.08,-1.0268329553147393,-0.14072438539713794,13.306183553734394,-0.0002021971780186494,-0.006249293652178539,0.00032061583456518297,91137.65190085501,,,
3.09,-1.0284530152718323,-0.13500009627165824,13.020312520190146,-0.0006665090096214712,-0.007076940317268726,0.0002441473096130765,,,,
3.1,-1.0309144320799453,-0.1380473284691947,12.718886675139686,0.000902979826325248,-0.0074346131572999435,-0.0004218989452760406,91077.02694609728,33.498654152989616,-99.33774332135715,888.1017715151543
3.11,-1.0206033737575977,-0.13750877553907065,12.474511727634546,0.001216825975119663,-0.006981568434490519,0.0003134238086520811,,,,
3.12,-1.0326273685467466,-0.1324807563423036,12.224143784334498,-0.0011041037506768299,-0.007309639516750137,-6.160488609933397e-06,91016.34498448759,,,
3.13,-1.0318907034777483,-0.14017694746984988,12.016445401659608,-0.0001266243419788596,-0.006305934711391237,0.0002522204901088769,,,,
3.14,-1.0273291227801002,-0.1385013762368326,11.812952131728434,0.00039367471258804456,-0.006571159875667001,-0.0023199501034201053,90958.22411041668,,,
3.15,-1.0338738571330472,-0.1365809658925858,11.624413678564968,0.001452138354841569,-0.00724674942769237,0.0013646972168563068,,,,
3.16,-1.033149643495553,-0.136508555652266,11.440242665237497,0.000275804769400589,-0.006300390128885914,0.00180396141542327,90896.72442342524,,,
3.17,-1.0332710650157184,-0.14397248285936248,11.254987000283222,-0.0003119069747315569,-0.005647511515374853,0.0006743896378099952,,,,
3.18,-1.0379621067588412,-0.1402926213930405,11.062349078872733,0.0020698380349410254,-0.005141915962429255,-0.00014739820938202515,90836.00855089875,,,
3.19,-1.03701493757621,-0.1365337608515716,10.848912260224928,0.00010949550188807275,-0.008765930838215662,0.0018006874883387792,,,,
3.2,-1.0375144334748436,-0.1428342976307833,10.625047434263337,-0.00014436893378286177,-0.005917386727736173,0.0012270823118762317,90776.5061282266,33.498669105019935,-99.33777213790484,917.1359664267944
3.21,-1.0384523912107335,-0.14445094149085827,10.340383572605528,0.0005560487807751862,-0.006356725968828373,-0.000949340703144277,,,,
3.22,-1.0356469260931869,-0.1373460633066219,10.066543100500448,-0.00028670949454829273,-0.00448703237622025,0.0021347894539122322,90715.35229712984,,,
3.23,-1.0450855208649805,-0.13935064625485927,9.68951690164579,0.00039314520919244214,-0.007460052435987945,0.0010368034692338083,,,,
3.24,-1.0411346882760306,-0.14130273209694466,9.304237307063088,0.000571583578850559,-0.007873808068902914,-0.0007742964844255031,90655.04133720492,,,
3.25,-1.0446366008968109,-0.13728882853322552,8.801614092121067,0.0014277659951956487,-0.006177355393162155,0.0011381310848825018,,,,
3.2600000000000002,-1.0503987364216194,-0.1320449313718962,8.291983070749191,4.19797224390896e-05,-0.00614383236748918,-0.00017374194585072745,90595.98460378822,,,
3.27,-1.0487667582043032,-0.13789755713953367,7.737836124811257,-0.0004090000236521204,-0.004033260043647116,0.0026394333020303535,,,,
3.2800000000000002,-1.0458220859245824,-0.14132690086044636,7.195827089743314,0.0008275612587326394,-0.008663753419677123,0.0009421522336482635,90534.90653443831,,,
3.29,-1.0523398815602645,-0.14190846193929552,6.601419393432088,-0.00034921160166305866,-0.007086910939821789,-0.0005975966069361607,,,,
3.3000000000000003,-1.050266456043721,-0.14268773544775562,6.0089195316351365,0.0007903732339867204,-0.006699141734973358,0.0008948386499514592,90473.8320658586,33.498670068991295,-99.3377349881229,939.3402767965742
3.31,-1.0572731642338484,-0.14227035522707998,5.396758173142839,0.001723519513161471,-0.007574032903834999,0.0011344306137279724,,,,
3.3200000000000003,-1.0546126880866065,-0.13548389958473234,4.775923352287586,0.000323999544445029,-0.006907835549195898,-0.0003593735233788724,90412.3534583336,,,
3.33,-1.0610850608237161,-0.13924927592211805,4.096296139473304,-0.0004143225885657499,-0.007109674954982841,8.396097288758973e-05,,,,
3.34,-1.0571955430762194,-0.14441803910857104,3.4079846882961617,0.001199674710789707,-0.0061018291845822935,4.016278697505334e-06,90350.94934335822,,,
3.35,-1.0544173681147677,-0.1335553106654369,2.517562468127709,0.001238230926592217,-0.0070206316578655305,-0.0003472539258888453,,,,
3.36,-1.0610786604516984,-0.13551134236005427,1.6015595981351525,0.0017266442916233382,-0.005980970751029411,8.4038559206984e-05,90292.01927667332,,,
3.37,-1.059014648357421,-0.13798497285064168,0.4476429072649007,0.0014722220871389979,-0.008574998142803212,0.001360124232353656,,,,
3.38,-1.0671518044635033,-0.14117501541807886,-0.7188244016762745,-0.0007110374828445521,-0.00648010650412709,0.002290525592332411,90231.44374485685,,,
3.39,-1.0645713374619772,-0.1395823020266285,-2.114799612364932,0.0004602378910979041,-0.006414191973115789,-0.0012918841074933472,,,,
3.4,-1.0679417724361964,-0.13846376938294508,-3.5273087283177067,0.0009164572864085278,-0.007013145872993154,-0.0006689092176043567,90169.52701756527,33.49871201807488,-99.33783079873174,972.4217462340986
3.41,-1.0633191276211382,-0.14566519979113493,-5.040800679151782,0.003032087686494996,-0.007677231259268813,0.0005731974295415532,,,,
3.42,-1.0675344440723895,-0.13619246612454847,-6.556798249554322,0.00020541477669149764,-0.006005292145928298,-0.0011138016002083812,90110.01778044553,,,
3.43,-1.070885420221207,-0.1430987725249559,-8.012415047927323,-0.0006384174918340221,-0.007862433655860448,-0.0024872198468995255,,,,
3.44,-1.0664696745321,-0.14159374946326386,-9.463533299646654,0.0012866060280761042,-0.0049452787977028335,-0.00013226245520309634,90049.7772239966,,,
3.45,-1.0702780076033511,-0.14871208197271243,-10.758506202275854,1.218867504332202e-05,-0.00519406859535464,-0.0001928980027273398,,,,
3.46,-1.0759413615524136,-0.1411158720967228,-12.040136925534728,0.002606038837700426,-0.007224583522190711,0.00032215011241902797,89987.82798314723,,,
3.47,-1.075117210416845,-0.14331293727861094,-13.156746013127062,0.0007153702447040753,-0.005743455540760112,0.000603363869438086,,,,
3.48,-1.0744841537133116,-0.14618042325518665,-14.26969632590324,0.0006868302767787161,-0.006754856770787781,0.001882571554276535,89927.55548554313,,,
3.49,-1.0804838491470963,-0.14163075827656357,-15.219355137943268,0.0007882518327322122,-0.008399260736058194,-0.0007591189088079182,,,,
3.5,-1.079582067901119,-0.13907234342355226,-16.16301440330825,-0.0001850235702152566,-0.006758897185831551,0.001218979150578377,89868.13292247539,33.49864026508687,-99.33781988374652,993.3971733312031
3.5100000000000002,-1.0835797969618657,-0.14149280309871082,-17.040280183490285,0.0018767061815246314,-0.0064489364657210856,0.0005002953563953085,,,,
3.52,-1.0789809262060714,-0.14191467146494463,-17.913145258404104,0.0016083371702370092,-0.006652739075951575,-0.00018644499846222538,89807.12034804963,,,
3.5300000000000002,-1.0802478608914214,-0.14287787435419652,-18.752700049597617,0.0020983223903192107,-0.005365969012460809,0.0007366516661176519,,,,
3.54,-1.0815806695396133,-0.13719798430461383,-19.59631877803967,0.0012913011593289054,-0.00621614121377368,-0.0005358136424579256,89747.2741202594,,,
3.5500000000000003,-1.0826456050000495,-0.14393777126535565,-20.36547096005225,0.00018610545348791345,-0.006586589645169986,0.0006360164447949462,,,,
3.56,-1.0902695483975555,-0.14210605558002173,-21.12942956934764,0.000849147484683007,-0.0069222034281640615,-0.0016415274984205716,89686.84184157477,,,
3.5700000000000003,-1.0855631951435267,-0.14913176628534738,-21.894978189780637,0.0012368980094136558,-0.006812684739289992,-0.001981330585501655,,,,
3.58,-1.0866401884044634,-0.13919886768259693,-22.66433072375148,0.00043029943477439637,-0.0064150574747049195,-0.0021844066650771703,89626.83930189641,,,
3.59,-1.0889467054173947,-0.14621590509690466,-23.149754729605135,0.0004926078830586687,-0.007411412944072321,-0.0007975206593680759,,,,
3.6,-1.088809942015635,-0.13884017184717884,-23.615046813477907,0.00022230293443584702,-0.004543184161299537,-0.001857747285639137,89566.05588224028,33.4986853169705,-99.33782622519392,1037.1987536928725
3.61,-1.088052988818245,-0.14608743440072064,-24.077684328232692,0.0010622484178248247,-0.008691938794300485,0.0008359794737209285,,,,
3.62,-1.09796349336217,-0.14169279181458896,-24.538713462496702,-0.000308667322090209,-0.006752720113883921,0.00025683704198299054,89506.3228664639,,,
3.63,-1.095311829488935,-0.14736832079497508,-25.188614506235936,0.001006079459619084,-0.007128342921499941,0.0004223984878076313,,,,
3.64,-1.096542797204065,-0.1437324460728315,-25.852083122716117,0.0027660851636960404,-0.005707520880647426,0.0011232691211038636,89446.69963935929,,,
3.65,-1.0934311406527164,-0.14317444929654233,-26.479347535227927,0.0017215572540257987,-0.007250937996773994,-0.00020557345134878348,,,,
3.66,-1.1001376981586313,-0.14320571593987994,-27.11128287581029,-0.0014101637224329814,-0.00598023693161514,-0.0008041525565492271,89386.49555995665,,,
3.67,-1.098609332401386,-0.1381257835327664,-27.971284104521736,0.0018531142902571533,-0.005720144009654853,-0.0020105815156747993,,,,
3.68,-1.0979240966867159,-0.13789061806408973,-28.83743115087635,0.0007975590255481264,-0.007156607151464781,0.00030728457350660474,89327.39746807938,,,
3.69,-1.1064975988804115,-0.14260815306315366,-29.62499385748673,0.00043927989905432653,-0.007812332716847938,-1.419816877788039e-05,,,,
3.7,-1.1079784843655816,-0.14611016713320105,-30.393128629435658,0.0002413115529259164,-0.006424180596232475,0.0003083818634996962,89268.09782407498,33.49871188277308,-99.33787812611914,1051.7311699679535
3.71,-1.1085017660945502,-0.14307951784966866,-30.896054499478865,0.0015536146056357339,-0.007302187107647843,-0.0007581084279773473,,,,
3.72,-1.1071148797107901,-0.1546836428765039,-31.374212959419964,-0.0005112004950676807,-0.006872440749012409,-0.0006184451435766676,89209.14367888767,,,
3.73,-1.1081321185133868,-0.14755871673794507,-31.777183495288558,0.00107972354109634,-0.00645488672792227,-0.000710635945115636,,,,
3.74,-1.1081294630178702,-0.1430403257465419,-32.16442862795026,0.003873291015182154,-0.005863730358496085,-0.00038708784165925823,89150.67270218323,,,
3.75,-1.1061991048083333,-0.14536380417889894,-32.490426129189004,0.00138008670547751,-0.007453474095266882,0.00026512849292894793,,,,
3.7600000000000002,-1.1107961276689666,-0.14815457190830159,-32.81098810908012,-0.0007696242506843488,-0.006392772331075554,-0.0007660644793525122,89089.42431606361,,,
3.77,-1.1125683980210843,-0.14615655768175653,-33.057283316092985,0.001817905757766409,-0.006038164764807383,-0.002070116840292563,,,,
3.7800000000000002,-1.1142333660855785,-0.14455950994061845,-33.3077019217476,0.000987163711302548,-0.00676622232626317,-0.0010718477776187976,89031.79339675877,,,
3.79,-1.1184048713013082,-0.14378047896537344,-33.49798654663682,0.0008950629571666563,-0.0063278096291217835,0.0011733858134579842,,,,
3.8000000000000003,-1.116352344115932,-0.15120394847101334,-33.684881436939925,5.2311987615737544e-05,-0.006671891839858025,0.0005785074198167169,88973.01354581522,33.49872897130521,-99.33785398141922,1084.784191598844
3.81,-1.1197308561847044,-0.14890252013396216,-33.81401575541968,0.0005711729835943625,-0.006338926936153588,-0.0005970325007474625,,,,
3.8200000000000003,-1.1142068104091567,-0.14559575738954797,-33.93125447619794,0.0015819338442315315,-0.006308537909311378,0.0008317166849913901,88914.16620882317,,,
3.83,-1.128266245151246,-0.14616437315837066,-33.997868344817604,0.0008880238303049716,-0.006497348901851426,-0.001334803763534076,,,,
3.84,-1.1178746971379947,-0.1463906215001805,-34.064688509109274,0.0002606025999460706,-0.0065355540927969765,0.00011970585483910604,88855.16418815416,,,
3.85,-1.1231710754949678,-0.148587552062328,-34.09656194908344,0.00035822431468340355,-0.008015259083402273,0.0013565190686568498,,,,
3.86,-1.1253033488326232,-0.14359047952529128,-34.1372631946597,0.000771504700661662,-0.006471432291402413,-0.0009211806241320356,88796.09280103851,,,
3.87,-1.1247089655519495,-0.14418415110899843,-34.174543342385924,0.0016426486360470985,-0.006954397004041276,-4.811833826400737e-05,,,,
3.88,-1.1312694252556903,-0.14947900283818943,-34.22534010913622,0.00018233225487252473,-0.00632538303963232,0.0008410955745601716,88739.00371062134,,,
3.89,-1.1272599118416553,-0.14142621115142548,-34.27677482960471,0.00012989420117434154,-0.007139072478597444,0.0014956025503868214,,,,
3.9,-1.1314159033857056,-0.1461300824506836,-34.32608490789729,0.0006010278813073069,-0.007036767136818237,-0.0004911796858204607,88680.89949284417,33.498698823726606,-99.33787387912312,1108.5356477415075
3.91,-1.1339550203373714,-0.14915829403130945,-34.665308050119165,-0.0010553811791125937,-0.006144398754588717,0.00045162757957579097,,,,
3.92,-1.1372959820576252,-0.14743041890735648,-34.62623163801631,-0.0013641490768826652,-0.007392697505436979,-0.0013350233550306265,88622.13944791503,,,
3.93,-1.1338775341604144,-0.14826412491996485,-34.58122451979308,0.0003438791905747906,-0.005622995115477778,-2.8132735308423563e-05,,,,
3.94,-1.1372948221163495,-0.14560264863365424,-34.54881978499158,-0.00011221129002731019,-0.005746418586824403,-0.0006149811413122438,88564.4992185388,,,
3.95,-1.1417915067615967,-0.14425385881093417,-34.51033392830336,0.0006928720805347039,-0.006107394251015601,0.0006310910217037384,,,,
3.96,-1.1396135977889463,-0.1420705235689967,-34.473810463443506,0.0006858022218262104,-0.006581922340666704,0.00023945229949613877,88507.50855067528,,,
3.97,-1.1347065743823666,-0.15145060856487613,-34.4362467672306,-0.0011027534140500615,-0.006899257067575593,-0.0005982698456135567,,,,
3.98,-1.138979981086276,-0.14634844928954502,-34.39663475322956,0.000843519128216643,-0.007488167411550871,5.660622588665979e-05,88451.29043478363,,,
3.99,-1.140615847143485,-0.14784666025627166,-34.37008914054912,0.0004241817653983136,-0.008362490290412392,0.00047845883444617683,,,,
4.0,-1.144089347161027,-0.1446205717871847,-34.32289195913553,0.0008373697349286795,-0.007189891057754192,-0.0010446138128582852,88392.27566769034,33.498661247657516,-99.33784519856191,1132.914576448595
4.01,-1.1425847037253856,-0.14620460972228583,-34.28693397287792,-0.00032160535822954345,-0.006521170244137543,-0.001430719415467592,,,,
4.0200000000000005,-1.1452353375363766,-0.14902805543979036,-34.255715283603486,8.253021104545784e-05,-0.006987103237446774,-0.00045872524790035915,88334.5452965067,,,
4.03,-1.1502360468482484,-0.14551939425537538,-34.211501528390414,4.4676697319938666e-05,-0.006890364584517367,-2.5968292592284896e-05,,,,
4.04,-1.1498610232463637,-0.14896343436976456,-34.17830607101137,-0.0008034309546286409,-0.007458536086145162,0.00048785339565688004,88276.73933758073,,,
4.05,-1.1499600307488498,-0.15296357319869794,-34.138843873371094,0.00048773474641919444,-0.007659233813576238,-0.002019729599061971,,,,
4.0600000000000005,-1.156289694529339,-0.14732884920656583,-34.10491031947903,-0.001491556563754695,-0.0076619537509690526,0.0004201580819873765,88221.37729062153,,,
4.07,-1.1509244867236565,-0.1511491894552295,-34.07003284437732,8.320769186080998e-05,-0.004982325487621646,0.0015965750354390291,,,,
4.08,-1.1546747038561642,-0.14955897573607327,-34.02829728093781,0.000185489599648268,-0.006766817960040274,-0.001362399996656537,88163.76544088472,,,
4.09,-1.1542963907292123,-0.14483802963121284,-33.994676532862776,0.0010980056047796291,-0.0070057228595695525,-5.003599633806679e-05,,,,
4.1,-1.1600439266200828,-0.15010667798742927,-33.96148116999613,-0.0009891128879126751,-0.006165024203659647,0.0006716591620407503,88108.18443846611,33.49870895882791,-99.3378619038039,1168.233979894067
4.11,-1.1584940187283264,-0.15059053654454388,-33.92525415472361,0.00037479428161577716,-0.007389914676721103,-0.00012777720649962023,,,,
4.12,-1.1595195325954994,-0.15320226406167176,-33.893187640157706,0.00027245657088617315,-0.004205613977240447,-0.0008667549084669489,88050.80334575614,,,
4.13,-1.1610053660851516,-0.1464537359678718,-33.85572095222715,0.0019060473717667312,-0.007169358231895404,0.0010719447547782818,,,,
4.14,-1.1643397896945837,-0.14670883497565348,-33.82320291455992,-0.00040374890943814306,-0.006926721451626998,-0.0009919523594805375,87994.43997113849,,,
4.15,-1.163912049136969,-0.14527289820186418,-33.77649659960883,3.6802308558424096e-06,-0.009158946742341896,-0.0011567438465132846,,,,
4.16,-1.1633841905808264,-0.14711561758417446,-33.746986712095286,0.0006817010945353884,-0.007864771137654127,-0.0013704455139807506,87938.38236749278,,,
4.17,-1.174872901784486,-0.15292700948796858,-33.70684135325927,0.00044960178988096434,-0.005719527218579392,-0.001183941142816031,,,,
4.18,-1.170100861111753,-0.14426490047744225,-33.67033328260631,0.002266438678973954,-0.0067497609877429,-0.0006508222837974481,87883.17276125599,,,
4.19,-1.1686050874945488,-0.14661654155945938,-33.63797391473205,0.0013535756361552867,-0.006536274422385421,0.0006275719798795875,,,,
4.2,-1.174426211374294,-0.14823903467415872,-33.601997371220996,0.0008671469161889457,-0.006586644287577145,1.74535788365589e-05,87824.57428824306,33.498750237912695,-99.33786871357917,1182.0688179684767
4.21,-1.1743986109577926,-0.14803666354103448,-33.57174886961325,0.0002378457031190731,-0.008147017609058628,0.000376122966585437,,,,
4.22,-1.1704197215457377,-0.14845883568677928,-33.53239036644104,0.00016795467005368262,-0.00937482661499028,-0.00041074681122670525,87768.76428772502,,,
4.23,-1.1773083689850272,-0.15311160482418848,-33.504800359917944,0.0015928540032831228,-0.006244377228774228,-2.8028852530388217e-05,,,,
4.24,-1.1829592040915833,-0.1509198772477879,-33.462833806759136,0.0003807392854818575,-0.007821578304399682,-0.0003815421669536035,87714.88039122024,,,
4.25,-1.1821463631714941,-0.15170972700137758,-33.43044386308861,0.0005753442506893619,-0.007874092815933782,-0.002247227313320159,,,,
4.26,-1.1811992310675175,-0.14536779434009545,-33.39658395294306,0.0012658196125044483,-0.007036583226506863,0.001262965637895312,87659.34292626377,,,
4.2700000000000005,-1.1833126677755137,-0.15042667958705785,-33.361445877702685,0.00045047748619788373,-0.006306951227937228,0.001356785160626492,,,,
4.28,-1.1839393549080526,-0.14866081396292766,-33.326882313128934,0.0005722776326837922,-0.004820173491286212,-0.0010216996157511424,87602.16778963461,,,
4.29,-1.1833080526888509,-0.14721288352085488,-33.28421010273878,-0.0002810481033448496,-0.00712606172463872,-0.0008360238257586328,,,,
4.3,-1.1866623998024697,-0.15053370037755912,-33.25641346857182,0.0016263385615959366,-0.005606754904368758,0.001781389600448005,87547.35317845838,33.49867279319581,-99.33784205012502,1218.5736143159731
4.3100000000000005,-1.1889268560700832,-0.15301830972644148,-33.22517106049455,-1.7388545535515216e-05,-0.008840895103086213,0.00048155528846919395,,,,
4.32,-1.191058081209487,-0.14962225092573458,-33.19599694377388,-7.144589700234616e-05,-0.0050917252558375856,0.0013728058121396335,87493.61668102146,,,
4.33,-1.1906493832458653,-0.1504897515536064,-33.16034425646459,0.0004133594093619396,-0.00801741276061957,0.0009760495262964841,,,,
4.34,-1.188437241080488,-0.15289461127268214,-33.13079615026916,0.0007635099753173644,-0.006526426687899021,-0.00038812625010437225,87436.82004153468,,,
4.3500000000000005,-1.188986675294762,-0.1489926916816742,-33.096466312851796,0.00228522194746918,-0.0067343303584704505,0.0002874526562399095,,,,
4.36,-1.1987501003743795,-0.15120379038853607,-33.05502837614537,0.0008158680306337674,-0.0073319427207132574,-0.00101149735712604,87381.5547190478,,,
4.37,-1.198048735720082,-0.15489005909031223,-33.021468123465695,0.0020999608766119776,-0.008124947195756552,-0.0014218249072545936,,,,
4.38,-1.1933921509071277,-0.15109856061333699,-32.99346352076658,0.0007308500226884896,-0.008023837217725403,0.0006575224072263104,87328.39340212649,,,
4.39,-1.194050983573668,-0.15240342208428884,-32.956835406076024,0.001120844291330658,-0.007300194235956934,0.0003391601998076187,,,,
4.4,-1.1939148887481639,-0.15542820561688522,-32.9191070650784,-0.00011506347029750883,-0.00731723026156394,0.0016119527559317023,87272.91449433376,33.498677828998865,-99.33790387585988,1234.2951513935786
4.41,-1.1979732002544257,-0.14438083348104583,-32.89009412589664,0.0011184594675958228,-0.005664274650392324,-0.0006235785055210601,,,,
4.42,-1.205487241689604,-0.15459436847755012,-32.8484998338832,-0.0007874896343108389,-0.006998492795373949,-0.0002593537018188274,87218.52433005635,,,
4.43,-1.2026926473181256,-0.15395347979491486,-32.822696925730746,0.0015521070378843762,-0.006983893055891,0.0002669421000220494,,,,
4.44,-1.2081728590932301,-0.1469689270704271,-32.7880565551577,-0.0013829498836796321,-0.007720369450639495,0.0003057647835685885,87163.13014552189,,,
4.45,-1.2083595863594199,-0.15299345102896866,-32.75379149504063,0.0021738309547064774,-0.007192339708281446,0.000387625780899954,,,,
4.46,-1.2088590566645165,-0.15064144697695228,-32.73100425098224,0.0008745393138292998,-0.006954364305501653,-0.0023604787286953645,87109.37614212584,,,
4.47,-1.2033391816314944,-0.15906995759865353,-32.69553157904139,-0.00022093557533554148,-0.007660914171850527,0.0002643091253329376,,,,
4.48,-1.2156068923068781,-0.1564378557073985,-32.660710249238335,0.0013265877756399006,-0.007430992120420586,2.194114737661987e-06,87055.15319571132,,,
4.49,-1.2131380273637467,-0.1495979808374941,-32.63595374809036,-0.00012014900615227981,-0.006761224657335673,0.0003980836143151,,,,
4.5,-1.2124437203829317,-0.15095354216132306,-32.60630491892768,0.0004159150530789957,-0.006665974791412152,0.0017481011433380159,87001.64415614924,33.49870180422043,-99.33788281496523,1267.8357433918804
4.51,-1.2145737268481607,-0.15635127552977018,-32.57789949666138,0.0019544271016319645,-0.0077297886210608395,-0.0008913099733980946,,,,
4.5200000000000005,-1.2103868750020357,-0.15272526390873814,-32.55459181293036,-4.392424169914744e-05,-0.007202391594756307,-0.0003079676076055226,86947.37211291339,,,
4.53,-1.215939678151117,-0.1544540542824615,-32.52463082986547,-0.00040552821724522815,-0.0038096323759250175,0.0010718830941149015,,,,
4.54,-1.2170362372719135,-0.14951902380158888,-32.498713661733746,-0.00031129599480668067,-0.0069273108794793686,0.0006651587391634456,86892.68160269441,,,
4.55,-1.2230907079197582,-0.15485086870318723,-32.46095229250609,0.0007581051299640351,-0.009355212259712873,0.000911457176855618,,,,
4.5600000000000005,-1.2192990912321506,-0.15986013173373498,-32.434613391860225,0.0015754851258308568,-0.00705564904661609,0.0013079049740626783,86838.88709507675,,,
4.57,-1.2195715653705068,-0.1492428203597907,-32.39922456999629,0.00012951122498329346,-0.0070260979633699205,-0.0003600176711766142,,,,
4.58,-1.2214632184131053,-0.1588828913525792,-32.36611401514323,-0.000611010044405417,-0.006230263930311224,-0.0008736440674623602,86785.99387818653,,,
4.59,-1.2246758162787552,-0.15152642692745885,-32.3399072142561,0.0011040856060260808,-0.005723289278762367,-0.0008653109850658185,,,,
4.6000000000000005,-1.225219299225849,-0.15618651209059564,-32.307993050674185,0.001625205038862646,-0.008981348171693377,-0.0011739538642691733,86733.6230661,33.498739509452065,-99.33794580258446,1290.3960957405666
4.61,-1.226049677894981,-0.15911855502756442,-32.27593238937494,3.5302911847202856e-06,-0.006023914649738885,0.0003021555758060469,,,,
4.62,-1.2341471255762095,-0.15842173335149135,-32.24234019513234,-0.0014316587998172898,-0.006495878804187194,-0.0013036452749508847,86679.76116149625,,,
4.63,-1.2304464603094365,-0.1513767768673016,-32.22344212328222,-0.0016731809204320537,-0.008056174179593357,0.0006473094531618005,,,,
4.64,-1.2306573127061262,-0.15572164576275066,-32.182874450543466,0.0002878556188406514,-0.006605443461383855,0.0006306748707798657,86626.85923333323,,,
4.65,-1.23713288431947,-0.1519733577850415,-32.154240342714985,0.00047257682892735774,-0.007667284605746127,-0.00022137543088435996,,,,
4.66,-1.2367677726350812,-0.15857067748212178,-32.122944293180964,0.00118587629326063,-0.007807049128859428,0.001043139565582764,86573.87767346975,,,
4.67,-1.2377195823248037,-0.15464962981626906,-32.0938406066938,0.0001527107396903771,-0.005962602169961943,1.3090203856209476e-05,,,,
4.68,-1.2358407073220041,-0.15440550892308483,-32.05981335999625,-0.0002807037985088856,-0.005827758655877795,-0.000383617097994035,86519.68122774186,,,
4.69,-1.2410269997253114,-0.1547735725406805,-32.030745318202115,0.0009062194883706284,-0.007681250068829278,0.0006499351895252033,,,,
4.7,-1.240801834077627,-0.15558207908798133,-32.00583714447467,0.0022638241068725514,-0.007311743090892517,-0.000295112551101257,86468.3525406663,33.49870131644965,-99.33794188540134,1316.1497423215153
4.71,-1.2418415152329927,-0.15225783822194017,-31.979388746806887,0.002478368079548204,-0.005995650782822989,0.001608798001396006,,,,
4.72,-1.242609243904146,-0.15484998555151525,-31.954315913012472,0.002547504531168654,-0.00589142528268673,0.0009331539001779477,86413.27039712819,,,
4.73,-1.251126922405551,-0.15990023361216746,-31.933012812316573,0.00014208161072559234,-0.006680409597864256,0.0004075793789073337,,,,
4.74,-1.24794866728308,-0.15540834952643617,-31.898693858210308,0.0001468194831440299,-0.00794509545395774,0.000649877893870949,86361.99842388567,,,
4.75,-1.248095196726143,-0.15165975552610725,-31.86497327435398,0.0015044414448035033,-0.007329098934804132,-0.0007616255061100822,,,,
4.76,-1.2550306288981061,-0.15287810139180133,-31.841787709210127,0.0006710169816063704,-0.007697462868988044,2.2089612796212338e-05,86308.89696984607,,,
4.7700000000000005,-1.2579322419371228,-0.154956752780555,-31.814105170478136,0.00256813835110861,-0.006713217650037846,0.0017313404871348212,,,,
4.78,-1.2513690745865327,-0.15192550129437343,-31.775296633192934,0.001550330448951027,-0.0075573595399511615,0.00012069417936928283,86256.5053491536,,,
4.79,-1.2543786544391777,-0.1525912370109644,-31.752847357603166,0.00232795105624755,-0.006867653914625425,-0.0005550375745825507,,,,
4.8,-1.2542173686711733,-0.1558082697928839,-31.723066790042147,0.0007960334452587468,-0.006945411219460963,-0.00030665209214517265,86204.31014182903,33.49877247626779,-99.33802811845119,1338.7419052541393
4.8100000000000005,-1.2503810578046048,-0.15295841114541375,-31.699804683033868,0.0009838033845318006,-0.006390534114903793,-0.001001704646297409,,,,
4.82,-1.2552457003766846,-0.1563614138658429,-31.670831927143187,0.0009098693932712001,-0.005293108913898874,0.00010912442443615442,86151.64398583194,,,
4.83,-1.2608298992058644,-0.15955416003540762,-31.63834857056419,-0.0006861539411125342,-0.0065717888298807425,0.001135293593775273,,,,
4.84,-1.2637770635974719,-0.15448202120384757,-31.613331694109327,0.0005458829108005345,-0.007351300207369747,-0.0012129350991114563,86102.63107357458,,,
4.8500000000000005,-1.2625111202394388,-0.16174415767518088,-31.575293064831158,-0.00025509656260801563,-0.006563700817628084,-0.00031956390044624933,,,,
4.86,-1.2624213215961666,-0.1554757356228588,-31.54912677088704,-0.00010477687267038431,-0.00787356263352296,0.0004519239499197847,86049.60301377837,,,
4.87,-1.2655960317816515,-0.1572642565991023,-31.518114728989108,-0.00037537554798405717,-0.006129519698110365,-0.001591288117462894,,,,
4.88,-1.268158812235317,-0.15222758207539575,-31.488262276889845,0.0019764917285938757,-0.00629946067794763,0.0005286613297160925,85996.3881258028,,,
4.89,-1.2737793853914336,-0.15797738565397124,-31.458599521495014,-0.0017075375922668621,-0.005777726119375539,-0.000382917280094745,,,,
4.9,-1.274261912002147,-0.15808650121829734,-31.4328976099527,0.0010294366616264406,-0.006580710723228359,-0.0004957052314807776,85945.66470418285,33.49876065633111,-99.33798848690367,1370.7113582618786
4.91,-1.271064796289055,-0.15585322490375708,-31.41737963076228,0.0007139118427900618,-0.005054072172014324,0.00020470696123375308,,,,
4.92,-1.2767201285464096,-0.1605870049131183,-31.38778499999159,5.263473079008727e-05,-0.00734247057041253,-1.939345551888369e-05,85893.68494308421,,,
4.93,-1.277434519528176,-0.15210912041216235,-31.36598162963399,0.0017877983551973734,-0.008330964219858766,-0.0007640377300353369,,,,
4.94,-1.2714372901198747,-0.16067826835640647,-31.336539490248217,0.00044194749335058433,-0.008968420484902982,7.335865519217756e-05,85841.72798550305,,,
4.95,-1.2820633321478467,-0.15630210073818948,-31.316801760963084,0.0023632806533226023,-0.007799103640546238,0.0005038848022150961,,,,
4.96,-1.2793908428689806,-0.1543454813396887,-31.2849016090978,0.001022939009537755,-0.009455050621542805,0.00031919187493258805,85790.39074739719,,,
4.97,-1.2774153590967514,-0.15618499166659647,-31.254982576406043,-0.00026200245363356474,-0.008784374308475978,-0.0012705285750313979,,,,
4.98,-1.2803589323300746,-0.1560400826776098,-31.22460789275858,0.0022682811618899576,-0.006520754941449332,-0.0008697176173384943,85739.00944908323,,,
4.99,-1.2848052750749601,-0.15529043360542352,-31.199998193524774,-0.0009713783722347229,-0.007076918716348601,-0.0007104791502179749,,,,
5.0,-1.2857702270690399,-0.1557858966300545,-31.17333498880202,0.0004902486090174771,-0.005121229625691502,0.0006794564126776087,85688.71534096464,33.49874230445594,-99.33800389148877,1392.1102897694457
5.01,-1.2855714703164351,-0.15852286528422146,-31.14682783274575,-0.0009709176994740118,-0.006844644034080845,0.0001088395585608386,,,,
5.0200000000000005,-1.2906046441371775,-0.15657023389139796,-31.115359434150708,0.0012429074671849723,-0.008621340738457611,0.0005709295194096669,85636.54496860577,,,
5.03,-1.28627035940004,-0.15880382499849943,-31.08576511409291,0.00045321604516823037,-0.00786529868938496,0.0005521077554378422,,,,
5.04,-1.2853267703093318,-0.15183470898337922,-31.053645234115844,0.000851345157131907,-0.005918505999236002,0.0006051184143449401,85586.37335087766,,,
5.05,-1.2926982334021417,-0.15718685258662474,-31.03147771492986,0.0005108476616515025,-0.00702320103007969,0.0009148892016630454,,,,
5.0600000000000005,-1.2925190905644353,-0.15956255738871264,-31.0101044731974,0.00031898485365194917,-0.007663302658199252,0.0009687492633466108,85536.4754862063,,,
5.07,-1.303114925129989,-0.15688126616843157,-30.99208995957635,0.0010261397543042156,-0.005600573013667546,0.0009003394995753807,,,,
5.08,-1.2957367998789209,-0.16020049509912593,-30.96307234992462,0.00232495082455076,-0.007803769073521797,-0.00036500334106894254,85485.81066271491,,,
5.09,-1.2954530555418091,-0.15630008486796695,-30.94183652259463,-0.0002327656891368586,-0.005994444966124021,0.0010307926958848823,,,,
5.1000000000000005,-1.2920886305647046,-0.15952434054395723,-30.91367854545746,-0.0005936872579705348,-0.00718600070384073,-0.0007135411028996461,85435.22227906193,33.4987880378193,-99.33800640799315,1410.4111289335601
5.11,-1.296749775635192,-0.15732925223330554,-30.88842107152093,0.0009443253511901412,-0.009930983513484568,0.0010654788947213713,,,,
5.12,-1.3172122871218876,-0.16198183278493902,-30.86103427316926,-0.0006575165021558535,-0.006945213963373387,-0.00034007073519514157,85384.17544929065,,,
5.13,-1.3258598153466001,-0.17309526614969634,-30.832299540667567,-0.001299549919488958,-0.006471062739134334,0.0012540269228675013,,,,
5.14,-1.3451663218024208,-0.17716483754235143,-30.80667227885301,0.001762681865307672,-0.007575068890656135,0.0009111885062142163,85335.24978812908,,,
5.15,-1.3528229048723284,-0.1760259941542386,-30.77856441436994,0.001482027380757982,-0.006302918833146552,-0.0002604491465705674,,,,
5.16,-1.3563812427941175,-0.17438654041287213,-30.75432857414918,-0.002020401251113208,-0.008077249194982709,-4.507866899149838e-05,85284.98123845454,,,
5.17,-1.3588320732482402,-0.1833663261295609,-30.72437129524762,-0.00025456155361160257,-0.004918005964237553,-0.0004915617060682459,,,,
5.18,-1.360004617081064,-0.17484222657284348,-30.700819775881612,0.001391481644668775,-0.005415515858813982,-0.0022203885429695944,85234.07312588587,,,
5.19,-1.354723897740408,-0.16884779282730736,-30.67424777804167,0.00013376508137217564,-0.003508254843613241,-0.0007083230654620475,,,,
5.2,-1.346510708230425,-0.16821761434708427,-30.650855955580834,-0.00042256506488051753,-0.00424497550641021,0.0013525167856273132,85184.19099355879,33.49876726892645,-99.33798631548012,1437.2382733096476
5.21,-1.334763812672529,-0.1632170464994415,-30.63100144026897,0.0006249287102548448,-0.0019347309830514458,-0.0008148964318613888,,,,
5.22,-1.327508895319902,-0.1570714583335125,-30.610874840594654,0.00042002511038707343,-0.004741720878153845,0.00024318709292940185,85135.76953468827,,,
5.23,-1.3149881129744811,-0.16151583307407635,-30.581996084906432,0.001034169876732836,-0.0031240104602679947,-0.00034127142202210095,,,,
5.24,-1.3168638101373045,-0.16063995769697004,-30.55833252072322,0.0005461707632714811,-0.00259089006118296,7.131192703226421e-05,85085.33343588482,,,
5.25,-1.3112209749631754,-0.16282824369096197,-30.539777123530573,0.0008824340861597311,-0.0024633183722435467,-0.0013990768387993938,,,,
5.26,-1.3056788232044725,-0.15281844380779658,-30.50610800692197,-0.0011760516725301078,-0.004538719947325253,-0.0015350571121554746,85035.72553235746,,,
5.2700000000000005,-1.3050357192442217,-0.15174683105497058,-30.485702056420816,-0.001921478103430544,-0.0043565634300228116,-8.431535262663538e-05,,,,
5.28,-1.3031518392427064,-0.15519150716019695,-30.459702789646933,0.0019081561584104569,-0.004641364039205692,0.0010354540239983368,84986.69950500039,,,
5.29,-1.3085707376813274,-0.15462509288575257,-30.43207292021018,0.0011804354075730585,-0.005443952007469026,-0.00011565610007454143,,,,
5.3,-1.314945425902062,-0.15314997429863514,-30.407176191805384,-0.0011166320836069777,-0.005742814457414267,0.0009495577708515004,84936.15654486293,33.49869118437138,-99.33801324283783,1459.5593318145993
5.3100000000000005,-1.3188685981779682,-0.15768493586719975,-30.385203259746806,0.0011067799200703738,-0.005306215659689707,-0.0012786256336174032,,,,
5.32,-1.3248574507423891,-0.1583008397288165,-30.35355173120985,0.0006248351391938066,-0.00634456998631619,0.0002303687059427001,84886.98611015566,,,
5.33,-1.334892985463878,-0.15718933367896673,-30.324605163955347,-0.001643959347059887,-0.005244738730924874,-0.0011933625725776369,,,,
5.34,-1.3400212606947932,-0.1621122423111264,-30.305594985802077,0.0011993994801400088,-0.004504106617221707,-0.0009402836154976745,84838.70321257768,,,
5.3500000000000005,-1.341372512300486,-0.16026593740929979,-30.275905364950503,0.0024539491241438436,-0.007797057463342078,-0.0001831375429035744,,,,
5.36,-1.3447661393991341,-0.16778252494603693,-30.250441568168977,0.002600312081437165,-0.006033696993783659,0.001323549164463502,84788.50689397138,,,
5.37,-1.3524969143995176,-0.169393344472734,-30.231918448330536,3.3915516879986216e-05,-0.0066206157123343025,-0.0008396465823255086,,,,
5.38,-1.3487666127458204,-0.16629589278274354,-30.21289208858132,0.0012043428520576837,-0.004928277899045296,0.0010744254114212258,84741.395348879,,,
5.39,-1.353418550345971,-0.16664574647934116,-30.191348609437913,0.002180952748001892,-0.005074409201722824,0.0001542375169628492,,,,
5.4,-1.3480373397661407,-0.16683242828152894,-30.161256461047902,0.001796293845588241,-0.005394235759214648,0.0005507799272908683,84690.58859754588,33.49882702254461,-99.33806486851354,1494.444490728898
5.41,-1.3549229520385229,-0.1679085756789993,-30.15075691927676,-0.00019010344300483383,-0.005455428412697061,0.00043053941129408486,,,,
5.42,-1.353221323907709,-0.16430333918569046,-30.12528861736745,0.0015190974785000244,-0.004835065633438348,-0.0018683621460785526,84642.06510399946,,,
5.43,-1.346354995183328,-0.16476707046005967,-30.094052922245158,-8.06197100040784e-05,-0.005871844277085609,0.0005988054885815268,,,,
5.44,-1.3433306408224734,-0.1619448977210859,-30.072804432897474,1.8175834065472336e-06,-0.005184113723014386,-0.00039240934915088684,84593.07907337992,,,
5.45,-1.3440132094622543,-0.16465981338372973,-30.04539924160518,0.00029301778931511096,-0.004924256572709127,-0.000259563594785603,,,,
5.46,-1.3423566809600207,-0.16471941572750703,-30.018221789492216,0.001799122193985482,-0.00426492738174955,-0.0005664973072044253,84545.90692872377,,,
5.47,-1.3440990442282261,-0.16496205954867732,-29.994352997645972,0.0017195507977362922,-0.0035475493377071384,-0.000783899826765857,,,,
5.48,-1.3418571199771951,-0.16333556934689122,-29.970115374778814,0.0010306439363203322,-0.0027552061203806456,-0.0015989982869556703,84497.04569186903,,,
5.49,-1.344577612098652,-0.15899243781893885,-29.945074265467234,0.0009005399322881474,-0.004036636655605418,0.00011680819991216691,,,,
5.5,-1.342898085217215,-0.16618442638367992,-29.919684758103603,0.0009331410318514583,-0.005956395211750273,0.0007987468196037082,84448.66068843355,33.49877600331603,-99.33805927207202,1512.4231460135493
5.51,-1.347546300784777,-0.15916399235701806,-29.8988695360455,0.0003311655134023929,-0.005116029869376325,-0.0001550975591618176,,,,
5.5200000000000005,-1.351357643334988,-0.16062139617075397,-29.872139734148497,0.0024411247837568817,-0.004812113817376604,-0.0004014428673822998,84399.47151066002,,,
5.53,-1.3481909511953156,-0.1659235010832748,-29.85469435535041,0.0007224854078860942,-0.0070361797817692275,-0.0008446655144693243,,,,
5.54,-1.3568533800223606,-0.16760349914605055,-29.83487821978141,0.0006228940875216144,-0.004344800110075051,0.0009753803406105342,84352.58031250008,,,
5.55,-1.3545280213898696,-0.16598203495042577,-29.81354249551855,8.52615797741581e-05,-0.006146212455680527,-0.0005312060674745645,,,,
5.5600000000000005,-1.3496327492136484,-0.165692924879844,-29.78542299763445,0.00041608759901550266,-0.005759010923018507,0.0006142465688908665,84304.27822953048,,,
5.57,-1.3611011295520172,-0.16415143952583858,-29.76226466861374,0.00043299682111569865,-0.0036097792076303023,0.0003055239637614545,,,,
5.58,-1.3613558012479203,-0.1664880716675926,-29.736089092007308,0.0010379031838924032,-0.007179590233066425,-9.089197873525458e-05,84257.45726345414,,,
5.59,-1.3642364636511741,-0.16658687906048644,-29.71308146715375,-0.000703744060234886,-0.0059720877654345856,0.0003606015151014028,,,,
5.6000000000000005,-1.3619691258674864,-0.17252458168116458,-29.690707624943308,0.0016104654653168481,-0.004371212224260997,0.00013687558113235042,84209.25793631944,33.49877541489336,-99.3380046122544,1523.9761766126742
5.61,-1.3631833234590995,-0.16355435935228205,-29.67752967315127,-0.0009636452167618598,-0.006036315044048032,0.0005520425733640481,,,,
5.62,-1.363772586686564,-0.1682376903562946,-29.652685873761317,-0.0026902798642254584,-0.005487351596767734,7.728765970187824e-05,84159.85486231025,,,
5.63,-1.3706284418433254,-0.16803766503505982,-29.634655243081532,0.0019075503809411571,-0.005183836260130935,0.0011997564595816544,,,,
5.64,-1.3663129768263815,-0.16673722535801547,-29.611993950903045,-0.0015789388933852085,-0.006960647886971597,0.0007000952421149603,84113.1591036396,,,
5.65,-1.3664331946804642,-0.1671665839238459,-29.59122080818566,0.0001768345764069511,-0.004790334455723909,-0.001269439881696441,,,,
5.66,-1.3701999213031528,-0.17135027309171594,-29.568246736111433,0.0007552242176025801,-0.0045131059703342,0.0010877894244489753,84065.73293773922,,,
5.67,-1.3699397604394348,-0.16885329480207814,-29.544691219677805,0.0022377664700100114,-0.006394983578792393,0.0012576297432631692,,,,
5.68,-1.3714376617964519,-0.16428393259863874,-29.520302308656863,0.00037762139138214254,-0.00518755877423079,0.0005045126468781663,84017.49942567978,,,
5.69,-1.3663852942452954,-0.16235653125484462,-29.498553655875817,0.001068707370066317,-0.005717747779049721,0.0005068234273209696,,,,
5.7,-1.370553541828753,-0.16016282586117062,-29.47200742522924,0.001593245638577028,-0.004503456153551845,0.000501471146566966,83970.96403243388,33.49881348246463,-99.33801595911802,1551.1170272638037
5.71,-1.374841797336009,-0.1636878878024062,-29.45213244427448,-0.0006502782068376239,-0.00453779596803751,-0.00010975593117169502,,,,
5.72,-1.3763053495223072,-0.16639771967742306,-29.430551394605377,0.0004566136410403338,-0.0052032150695596815,0.00029443912994546765,83925.19566704462,,,
5.73,-1.3707456448306297,-0.16407377280882432,-29.402367439860264,-0.001237165998600018,-0.00412610946328279,-0.00022272330756417335,,,,
5.74,-1.3773559771155142,-0.16435631795816252,-29.380086983245636,0.0004994280142492433,-0.005012520951643475,0.0003680391020665605,83878.63053204562,,,
5.75,-1.3781300922269943,-0.1626090789359932,-29.35980199274033,-0.0005126253531346747,-0.005758009448192461,0.0003302859862647541,,,,
5.76,-1.3782041356736405,-0.16891740515823134,-29.340470594511014,-0.0013081993840483544,-0.005572971256562857,-0.0004107253174646735,83830.18415739667,,,
5.7700000000000005,-1.3768966384457686,-0.16857014287699473,-29.322342318135963,0.0012281374292373878,-0.004538174554768357,0.0018094880472602044,,,,
5.78,-1.3853111960916604,-0.16007926339825762,-29.302603398825404,0.0006732863549624036,-0.006998404042406029,-0.0015993827089666732,83783.8851306719,,,
5.79,-1.38353646949179,-0.16857841695550388,-29.276474214878892,0.0007075458766189545,-0.005697293032350681,0.0009060137980766274,,,,
5.8,-1.3830291302492737,-0.16650636716397524,-29.26339515339205,0.00134815368800194,-0.0051562712507804125,0.0014666387669970238,83737.34783636432,33.49877197910356,-99.33796653816687,1574.7854061178896
5.8100000000000005,-1.3815814193834457,-0.16699964853359153,-29.237855949639613,0.00133877114859591,-0.003526150730390808,-0.0009534648845682436,,,,
5.82,-1.3827721806358886,-0.16681185893543993,-29.21602267183105,-0.0002866382790167825,-0.004649369128726769,0.0007903238884895087,83689.81786452029,,,
5.83,-1.38902875896327,-0.16910665677117953,-29.19084235243344,0.0005965072894418542,-0.006679287271536578,-0.0007263934784516853,,,,
5.84,-1.3843814446435152,-0.16930214023652868,-29.17656016981772,-0.0007589088715637019,-0.0037133160047567474,-0.0010174530414182408,83643.56973346055,,,
5.8500000000000005,-1.3807942948840375,-0.16494100223565222,-29.149883587942092,-0.0002665516709336622,-0.0063232461983179404,-0.0007268793557851939,,,,
5.86,-1.3871960364030076,-0.1710968634433291,-29.12918892296618,-9.048921843946066e-05,-0.004147019905248372,-0.0009277839019992228,83598.05043391559,,,
5.87,-1.390688048683315,-0.16891121081014257,-29.108105420142163,0.0007564536404567419,-0.0066129308707204865,0.0004597670635497267,,,,
5.88,-1.3885490195909922,-0.16316733619775678,-29.09133960181909,-0.0009308092121135218,-0.004957229141990037,-0.0006432610977822232,83550.36957301847,,,
5.89,-1.3877762420758126,-0.1682749527001581,-29.068687836617947,0.00014955138162989012,-0.007164057354555432,0.0012634705527979511,,,,
5.9,-1.395659321041674,-0.16901256375146,-29.055504132765652,0.000528773316578396,-0.006396887093442854,0.0007747789387696148,83504.09378624076,33.49870663432382,-99.33806213052138,1604.1474558966595
5.91,-1.397782186493819,-0.1663701939874516,-29.03667157341977,-2.210401087919165e-06,-0.0069860589980899725,0.0012510643205968415,,,,
5.92,-1.3941055723126268,-0.17275579276123368,-29.014210204638292,0.0003552507488776362,-0.006524340477712219,0.000360956468205554,83457.59578266424,,,
5.93,-1.3910431554897775,-0.16804587633675203,-28.986240870296868,-6.80787145445165e-05,-0.005912879067084731,-0.0004616018422174765,,,,
5.94,-1.3977129395968144,-0.16731019833910596,-28.963419451283503,0.0020379076363064275,-0.0053012106843546404,-0.0003523802483969028,83413.539241134,,,
5.95,-1.3962676181423175,-0.1731106195060583,-28.943601863860682,0.0008913226003949779,-0.004478942832206074,0.0006877462119306779,,,,
5.96,-1.396655920941598,-0.17726461137501778,-28.926761217559903,0.00070408930328023,-0.0051916719977001535,-0.0004432219752705885,83367.980862931,,,
5.97,-1.3941026655023783,-0.16630670432415812,-28.90290156051464,-0.0009534702913553679,-0.004847350538164137,-0.0017458271175441497,,,,
5.98,-1.3966617602904148,-0.16355673877190713,-28.889864418468935,-5.253608233581151e-05,-0.003773626226516445,-0.0006666947426729354,83320.45350255436,,,
5.99,-1.404295294238494,-0.17136304794360638,-28.871754355581285,-0.0007829701756869692,-0.0046899533932036365,0.00024385994249877122,,,,
6.0,-1.400814837833914,-0.16779967789943767,-28.85167180895052,3.723266692287971e-05,-0.0044763551720879875,0.00030450342566947696,83274.54158862155,33.49881056488775,-99.33806024193694,1623.530670181711
6.01,-1.4045733887321492,-0.16956616172500905,-28.827257873040512,0.0020907172254122025,-0.004402617042658781,0.0011388958445853366,,,,
6.0200000000000005,-1.4050391046694855,-0.16968854569832678,-28.808185334755358,-6.689177489210569e-05,-0.005401314396082772,0.0004932446679838263,83229.89517182345,,,
6.03,-1.4037529072777193,-0.16691636370850166,-28.781217777965992,0.0015735513797065347,-0.004628357994132198,-0.000578771212815744,,,,
6.04,-1.4108931546218788,-0.16943303837887932,-28.763981434986952,0.00033033102007782407,-0.005339416745985994,-0.000322649812605536,83184.17239336968,,,
6.05,-1.4062288769066118,-0.17228577520194102,-28.73975042021474,-0.00010229363608162351,-0.006253246773406387,9.1832080026483e-05,,,,
6.0600000000000005,-1.4085117953451607,-0.17411386295480846,-28.723663750169358,0.0009854850756908918,-0.005303149433634534,-0.00025865284454536463,83138.58220048204,,,
6.07,-1.4152951338456912,-0.17015744102827757,-28.706727758176694,-0.0005809801907522267,-0.005375528575136875,0.0019307585843936612,,,,
6.08,-1.408930950326507,-0.17078137253764245,-28.688709410755056,0.0014935945023164371,-0.007311894829271418,0.0007613432960170574,83092.01130070271,,,
6.09,-1.4130676292854414,-0.17085523429599422,-28.670301532000146,0.0011296145033545479,-0.005450202133320609,0.0018891226746850628,,,,
6.1000000000000005,-1.4104546772299338,-0.16804495017762613,-28.650826720387872,0.0002371310941648207,-0.007997462607387021,0.0007363319144841554,83046.46093094876,33.498799742184346,-99.33812421348436,1653.1451284340985
6.11,-1.408414689792562,-0.1707427531214825,-28.635523114323295,0.0008175980947529309,-0.004751741250686132,-0.002324623332870199,,,,
6.12,-1.4127466968384668,-0.17372299824460166,-28.61204566966989,-0.00033431215665120906,-0.005367470227799781,0.0006282287891183253,83002.36622514705,,,
6.13,-1.4139012574906473,-0.16940320429703823,-28.596512688207582,0.0008799997777316547,-0.0055752259168819806,-0.00047480508016723837,,,,
6.140000000000001,-1.41721542966132,-0.17227938114062996,-28.56897481047077,0.0012220990510128892,-0.006767884456639371,-0.001000706651343167,82958.48465059104,,,
6.15,-1.4159465162993814,-0.17099009215926145,-28.54865075932242,-0.0010670000539401837,-0.004227527782274603,-8.925290712888007e-05,,,,
6.16,-1.418357520975796,-0.16920426272365227,-28.52779233467359,-0.00015848400572398527,-0.004179420831630665,-0.0018065332979246113,82911.70595534336,,,
6.17,-1.4227150621260445,-0.17027903341294942,-28.509013890465123,0.0010713293793142857,-0.0033244465943317717,0.00027464655516018835,,,,
6.18,-1.4165059329344625,-0.167861967649999,-28.496181204024623,-0.0004552290340445565,-0.006567719644435445,0.00018782539128869364,82867.3419136208,,,
6.19,-1.4199748374565615,-0.16814667733371066,-28.481890658651707,0.0015338436228331817,-0.006260427079954641,0.001069842594277675,,,,
6.2,-1.4243955852078878,-0.1774463859146257,-28.457441219293948,0.0003895502892094084,-0.005035610908468484,-0.00019833059104988547,82821.27465320457,33.49876847034587,-99.33812817530044,1661.480661255306
6.21,-1.4254382725135586,-0.17142071563725342,-28.437351361705378,0.0006368067491357279,-0.004425490910176799,0.0003489194113346924,,,,
6.22,-1.4187352769797854,-0.17362133157921847,-28.417329638617,-0.0009656952188438714,-0.006397927950844606,0.00013640250697686456,82777.8646565091,,,
6.23,-1.4263050020920587,-0.16995089709926317,-28.394680742590687,-0.0025389950908304123,-0.005520261389564264,0.0010391924136195834,,,,
6.24,-1.4255402266830877,-0.1670622345005224,-28.373320817483684,-0.0005017434157480743,-0.005776706670455554,0.0012138498810555206,82732.8897890421,,,
6.25,-1.4320891384963614,-0.17236377332039582,-28.35293881687631,0.0015684189714926687,-0.0065121776537972464,-0.0004570933176882679,,,,
6.26,-1.431652737916166,-0.17256199333994665,-28.334034046621852,0.00136023928884555,-0.006283377903891423,0.00013029371478904018,82688.01479043282,,,
6.2700000000000005,-1.430790139550244,-0.17852894848357012,-28.32500992424615,2.481838073158213e-06,-0.006958930584299636,-0.00024460077246815794,,,,
6.28,-1.4308736507222704,-0.17191822906799004,-28.302260629845875,0.0006383877873425327,-0.005193931696954354,-0.0005866748018008743,82643.56747653443,,,
6.29,-1.4327933362761154,-0.17209947281803836,-28.28756235717403,0.0012683079820872444,-0.006814519939097354,-0.00020834102918606696,,,,
6.3,-1.4330255791835766,-0.16446465576900113,-28.2697784154965,-0.0008895219515941882,-0.006482551389968772,0.001613617067427204,82598.87659439322,33.49875574833202,-99.33808004213304,1684.0523951193622
6.3100000000000005,-1.4374812931183136,-0.18051997941456793,-28.251543274001286,0.001348241387696293,-0.0049860026983020575,0.001357440636712318,,,,
6.32,-1.43645034453154,-0.17422229401348652,-28.229933388236116,0.0007607277983312019,-0.0047868776935197635,-0.00014953694027945963,82556.11453878063,,,
6.33,-1.438526354477317,-0.17264970184399583,-28.21289938488094,-0.00046385842131877776,-0.0054926834883507625,7.961856339686933e-05,,,,
6.34,-1.4312136634366948,-0.17135073394413336,-28.19534792028992,0.0003135964239204729,-0.0052336822145847214,-0.0005750507791532778,82510.58972203806,,,
6.3500000000000005,-1.4376801172463898,-0.17341408837002195,-28.17437009171325,2.6084427826067328e-05,-0.003666692208706075,0.0013131321701797924,,,,
6.36,-1.4449505212938647,-0.17335010165418327,-28.150480161141456,0.0023331527481644473,-0.006203071824424398,-0.0003974152721913357,82468.34636081458,,,
6.37,-1.443586197133571,-0.16945103003248885,-28.129393104124404,-0.001195900695901152,-0.007112027297230903,-0.0011203509322362656,,,,
6.38,-1.4355136348357436,-0.1716227788794472,-28.117777907252318,0.0004179767321323873,-0.005578628027433271,0.0007499910042163218,82424.02030018235,,,
6.390000000000001,-1.4414130878264169,-0.1698466417844392,-28.09661861936814,-0.00031287524150103174,-0.006355954685223147,-0.0005490726661063187,,,,
6.4,-1.4395805672005249,-0.17269388701200697,-28.073162263087127,0.0010881887895007485,-0.006125858088307942,0.0015502977302073778,82379.97483445548,33.49879297262686,-99.33806985883837,1712.1035722826439
6.41,-1.4427309212766246,-0.1721369845759829,-28.064473829173973,0.0009516631534450843,-0.004760005447241514,-0.0010258210979242884,,,,
6.42,-1.4539799743664452,-0.17400140322779573,-28.047608017968997,0.00027714690361003525,-0.005376475703983496,-5.1994844008391473e-05,82335.94580453832,,,
6.43,-1.4484953929639308,-0.17758003387460225,-28.022292795467816,-0.0004751771052062153,-0.005592696543765658,-0.0012731224332367802,,,,
6.44,-1.4476664464132543,-0.17397671014092975,-28.006590556137876,0.00017480824790955555,-0.004059235294735706,0.0006802590148109018,82291.80378053478,,,
6.45,-1.4548770376414146,-0.17403736016129728,-27.983357440851503,-0.0001267776975409972,-0.005305753325550522,0.001224440475469536,,,,
6.46,-1.4536482050148873,-0.17099975023212963,-27.966022298228804,0.0003720716278750835,-0.003885120348729862,-0.0016223747871641685,82248.41458917655,,,
6.47,-1.4507437610229335,-0.17709358046577017,-27.952215567774843,0.0006270821537026723,-0.007464015541657624,0.0016304771352681521,,,,
6.48,-1.450672739966027,-0.17738811995207945,-27.929354468406434,0.0021552228148549934,-0.007014279219728258,0.0008162049708314671,82204.11514274053,,,
6.49,-1.457786187852862,-0.17382798233499916,-27.918368294424535,0.002816792233688556,-0.00585347747409337,-0.0005374019405042057,,,,
6.5,-1.4534037830237736,-0.17639290122079002,-27.900658752648376,0.0008056749823540119,-0.007010037502685739,-0.00027628187710477804,82161.378966699,33.49876182945743,-99.33813475152859,1734.1992076702268
6.51,-1.4570071403582465,-0.1759224233293566,-27.881457959607765,0.00026975967554228016,-0.004732510127990875,0.00013218493002589124,,,,
6.5200000000000005,-1.4608195571543523,-0.1725795985970848,-27.864399021110984,-0.00021953657362304478,-0.00391403303128748,-0.0003102961691327191,82118.3122255145,,,
6.53,-1.4611417101549884,-0.17194635276406398,-27.84886680253566,0.001478744105696803,-0.006247054817794424,0.0010409122175467323,,,,
6.54,-1.4549089972758495,-0.17298869927590982,-27.82495548820018,0.0013811727832250314,-0.005095989292637354,-0.0002175884590189175,82075.04332905181,,,
6.55,-1.4563514021771902,-0.17551208418506672,-27.812692552561412,0.0008985685937817297,-0.005289173505063612,-0.0005979654020674102,,,,
6.5600000000000005,-1.4603651949904668,-0.18397870288381798,-27.786254018984245,0.0016637338681277903,-0.003907844468085193,-0.0016047794810841187,82032.17422177832,,,
6.57,-1.4619139060812771,-0.17313028414215662,-27.77405523026793,0.0007835952260794679,-0.006223656677417441,-0.00018556890191975318,,,,
6.58,-1.455404212211974,-0.1748755862851245,-27.750881657194636,0.0014743786690238547,-0.006782922497399824,0.0009716538809521481,81990.10986184332,,,
6.59,-1.467684117389377,-0.1775603866480381,-27.738869924341564,0.0017605394650515808,-0.007454750092491021,-0.0010673243888493847,,,,
6.6000000000000005,-1.468131126210588,-0.17171675255628183,-27.725836944236118,-0.0007309559621814499,-0.005806044013638977,0.0003447222899025085,81945.24333068116,33.49877302458052,-99.33815360206899,1751.0166115971704
6.61,-1.4644403896930889,-0.17171838990119231,-27.703344597887703,0.00032311002294743967,-0.005024897590797108,0.0012225000594684849,,,,
6.62,-1.4707516036513724,-0.17689215106483816,-27.697596734219694,0.0013172078309572684,-0.005980487982075428,0.0001251386727027883,81903.01753345907,,,
6.63,-1.4696568779215728,-0.18054226972572449,-27.670570532877857,0.0014572047755784974,-0.006376457717392606,-0.0005121571919733021,,,,
6.640000000000001,-1.4700876141935657,-0.17380675240212234,-27.65679458176668,0.0005716068367195406,-0.004671678335545929,0.0007805880472760298,81860.37432762979,,,
6.65,-1.4766950521209838,-0.17037351532246572,-27.632795087876527,-5.2969899982817045e-05,-0.0028439733450536203,0.0008848499357359096,,,,
6.66,-1.4667072503501886,-0.17712605229592837,-27.616058253856067,0.0011253357778501622,-0.007247391779889374,-0.0002941152754901496,81816.1958709564,,,
6.67,-1.4730921575989009,-0.17213109913844565,-27.599388484165093,0.0008043855685351024,-0.008110167581870838,0.00010976440909576452,,,,
6.68,-1.476421594181142,-0.17387633293227736,-27.578758521173686,0.0014396240396284663,-0.005308026975941911,-0.0013480999858487706,81774.97021233392,,,
6.69,-1.476606816029116,-0.17529713061493224,-27.566325602853667,-8.620430152127831e-05,-0.005634272600475558,0.002013585219639733,,,,
6.7,-1.4773058328872781,-0.17448379893756505,-27.550010828748256,-0.0024187468140767546,-0.006300533517333107,0.0008695926851185308,81731.7755005281,33.49876938989694,-99.33816556909755,1777.2089420962727
6.71,-1.4737811871641353,-0.17753380697995444,-27.538943432924793,0.0002560291094488877,-0.005721770609762434,-0.0010078274841362588,,,,
6.72,-1.4798255070828195,-0.17441193064100188,-27.519715429060202,0.00021903749606778,-0.004519142841367041,0.0005554331816507905,81688.00980437228,,,
6.73,-1.4781655607224575,-0.17269371900298966,-27.498135119592153,0.0007616249812492648,-0.0045981672050726275,0.0005362524091153584,,,,
6.74,-1.4803246749436203,-0.17962562962456471,-27.482025021148754,0.0023578722592310537,-0.004611572888099473,-0.000939754645586713,81646.98289528079,,,
6.75,-1.4797931951657408,-0.17521696387292884,-27.46444261236768,0.0031099420102901664,-0.005718037834350526,0.0011445302802721045,,,,
6.76,-1.485010047039774,-0.17455475646410973,-27.44734970553024,-0.00014846472248166592,-0.005705616128387396,-0.0017425679204315042,81605.48514998291,,,
6.7700000000000005,-1.4886077939148201,-0.17999157358946988,-27.425735957548582,0.0017414162583768173,-0.005491302182862207,-0.00041624103911282244,,,,
6.78,-1.4856256450189806,-0.17431594751026422,-27.413217188254208,0.001983660612891345,-0.005556966720241196,-0.00013378699659554884,81560.98033036894,,,
6.79,-1.484699843369956,-0.17741856403657286,-27.39888408850288,-0.0005286401897365276,-0.005896213657418824,0.00048520227121697955,,,,
6.8,-1.4877016770288112,-0.1768404918231804,-27.384789847509563,-0.0005492040305695719,-0.0056851069888288735,-0.000196407247925253,81521.430137836,33.498736425813824,-99.3381804036375,1793.8603445152357
6.8100000000000005,-1.4885424034671209,-0.17556844494814164,-27.364010652047295,-0.0010920035025386854,-0.005239428388668496,-0.0007051921389942752,,,,
6.82,-1.4900996759761402,-0.18464658988634072,-27.346665007679004,0.00046897947366309015,-0.004738110466035391,-0.0020974155579215822,81477.97073278521,,,
6.83,-1.49433820590507,-0.18307790056772083,-27.335441803851584,-0.0006087670752064152,-0.0056716745493496585,0.0014061270097571116,,,,
6.84,-1.491740935250851,-0.17277755624772734,-27.316320488903596,-0.00016296660192794408,-0.005706072656169109,0.0011635996624946598,81437.56295115472,,,
6.8500000000000005,-1.4913366359699438,-0.1818033479058855,-27.295537231400235,0.0007224818614839051,-0.006032012601572204,0.0009061034650020829,,,,
6.86,-1.4946915650901758,-0.17874375015686694,-27.274913665060403,-0.0002459108375328363,-0.0038526749419365955,0.0014252638482798645,81394.62777298888,,,
6.87,-1.500379377751891,-0.1784302305367754,-27.25922022039438,5.589036751393677e-05,-0.00563740715816314,0.001261097055672953,,,,
6.88,-1.4977061834312495,-0.17985667038707617,-27.244807371112536,0.00244197373649642,-0.0058810965170755115,-0.00032044112629422907,81354.98032426502,,,
6.890000000000001,-1.4936914241134767,-0.17882426887142835,-27.232756993372064,0.0005654709892887263,-0.005108206103565534,0.0008085373095800008,,,,
6.9,-1.5026880450924365,-0.17769495867378526,-27.214471587410046,0.0006142203604261937,-0.005636469377825487,0.0006212753611449865,81311.3013572787,33.498821236880765,-99.33814321569427,1811.8300865654703
6.91,-1.5023650942385753,-0.17738172120736176,-27.19827768182826,-0.0006759271481300068,-0.004208086743731354,-0.0008406361537668538,,,,
6.92,-1.4964374622460646,-0.17849149334148723,-27.187197824533637,0.0005612838700991962,-0.00691046987136471,-0.0006947369910797667,81270.38930348279,,,
6.93,-1.5015093527906447,-0.18288433101489732,-27.164359212337992,0.0014489647965285767,-0.005785395521183513,0.0009522763833972285,,,,
6.94,-1.5063618483186239,-0.1804376571205813,-27.157040422322865,0.0019443206951554348,-0.006357818335576971,0.0026167631203282554,81229.15503965526,,,
6.95,-1.5028625860877984,-0.17803415780975831,-27.140665505820394,0.0001636073336433976,-0.005700006495330271,-7.510356615238493e-05,,,,
6.96,-1.5041665273066114,-0.18374642696284116,-27.12943667471563,0.002223035097481391,-0.005691724572187017,-0.0017014423408355586,81187.24872998735,,,
6.97,-1.5095890341546188,-0.18003289958321697,-27.116743552006017,0.0015370781827097816,-0.004902049732187305,0.0002000886085652589,,,,
6.98,-1.5003585914621118,-0.1835082329605527,-27.09421139190842,5.8071890313112114e-05,-0.005574692834040825,5.3966464220480176e-05,81144.7790906321,,,
6.99,-1.510808304562386,-0.18090863476681973,-27.07531464982668,-0.0004176503690472061,-0.006587480674593715,-0.0006474072915329195,,,,
7.0,-1.5060238932924908,-0.17908041173014216,-27.062062461187654,9.407614135179958e-05,-0.006369481968005477,0.00015483812828084588,81103.36161661946,33.49880416515729,-99.33816318473025,1837.7768750171506
7.01,-1.511458604506996,-0.18153075139295577,-27.046139080973465,0.002526758481933557,-0.00462192327776065,0.0007645384914221922,,,,
7.0200000000000005,-1.510883627748085,-0.18190663552738437,-27.02180671613291,0.0011632962322599178,-0.006136360913682,-0.0007332688071979233,81063.68687859201,,,
7.03,-1.5200113865242562,-0.18004493714400804,-27.01182367086024,0.0004024699334661258,-0.005051895149245462,0.0013773374377471757,,,,
7.04,-1.5207421424101937,-0.1780038788368443,-26.997570701702696,-0.0005269305108170795,-0.004433291019766766,-0.000700246812440725,81021.84704125008,,,
7.05,-1.5113056739777548,-0.18021648847847438,-26.98401797059508,-0.0004711954099145125,-0.00704365445843967,0.0012850790246442026,,,,
7.0600000000000005,-1.5232560794602985,-0.18281770126478086,-26.974517841828966,0.0005489050607066301,-0.0071604790894239006,0.0012890799001120435,80982.40294611076,,,
7.07,-1.5189973733555568,-0.18105735097414094,-26.954520172852096,0.0001751309115767357,-0.006825336785308033,0.00038953882256379354,,,,
7.08,-1.525256011526756,-0.17816350629237782,-26.931759882698568,0.0022457272062705817,-0.007003794678352985,-0.00033449680960686396,80940.48422756168,,,
7.09,-1.5183049265619404,-0.18113122087830513,-26.9158405695397,-0.0012598852786115087,-0.008223831763385786,0.00045075522200114116,,,,
7.1000000000000005,-1.5233046562746364,-0.1801405779639223,-26.90320495515801,0.000877532905301917,-0.005347356420570018,-0.0007519788356603999,80899.6705130436,33.49880580782079,-99.33817818379408,1856.1902440483634
7.11,-1.5217325379532778,-0.1842511454183818,-26.88406227491997,0.00011470703268569678,-0.005591719011471788,0.0008871131397411001,,,,
7.12,-1.5225344350591958,-0.17979813911784875,-26.873763968434098,-0.0007147139184906591,-0.006864119509591083,0.0002186921766226948,80859.15253531137,,,
7.13,-1.5268573161220436,-0.17731866683531441,-26.85284683824013,0.0014336514673506141,-0.004860248162653947,0.0002182361104695712,,,,
7.140000000000001,-1.5293619834322256,-0.19010751547232024,-26.839035997652296,-0.001147297526463054,-0.007517870631562731,-0.0004863063603054239,80818.3660903946,,,
7.15,-1.529890648377445,-0.1844921638540992,-26.82474999594328,0.000542367093376688,-0.006395443690863883,-0.0008580616418532072,,,,
7.16,-1.5280195379402794,-0.18463960539651328,-26.81156790600791,0.0016775846839966824,-0.005608512720970811,0.0015176785953417713,80777.6599903403,,,
7.17,-1.5300802475451345,-0.1851751685304975,-26.791657567793166,-0.0006298377340238942,-0.004048383962993839,-0.003050095203038265,,,,
7.18,-1.5308148787274514,-0.18274549815863958,-26.77663376512527,0.002043588295244308,-0.0065332603332714945,8.137759298119193e-05,80737.01577622666,,,
7.19,-1.529000235210923,-0.1806603171917706,-26.769668715064103,-0.00026421544838823923,-0.005664102401831899,-0.00022518594654366203,,,,
7.2,-1.535870755528729,-0.18057412218669397,-26.753603534312624,-0.00047234531140306695,-0.007809643771628479,0.0010993507781688267,80697.75720155994,33.49878497747729,-99.33818349994489,1882.562372807903
7.21,-1.534289204332051,-0.18402093242856465,-26.73821934919174,-0.0006594924622030214,-0.005670851288777616,0.0010063871768590442,,,,
7.22,-1.5383462533563679,-0.17871968353884285,-26.73207857099865,-0.00021588210949436857,-0.005318556774986812,0.001209618882134556,80657.89700691676,,,
7.23,-1.5397806582990585,-0.18671728594327117,-26.72102685450648,0.000562993516497356,-0.007162424681112701,0.0011472441757848695,,,,
7.24,-1.539039701536988,-0.18799720660840985,-26.69482360931819,-0.000842850400891957,-0.006358839983328623,0.00135436152646542,80617.66715528221,,,
7.25,-1.54523112844738,-0.1858887837477285,-26.676436060809678,0.0011641800654510707,-0.006034334317789492,-0.0005793293170508727,,,,
7.26,-1.5419028539117718,-0.18460962540385373,-26.660577153604173,-0.00032050992474567854,-0.006540207148714682,-0.002040474536831439,80576.89616219781,,,
7.2700000000000005,-1.5437276773981914,-0.18497905020487365,-26.649196780091255,0.0008940145638071263,-0.005293203169858719,-0.0005022643545677065,,,,
7.28,-1.5420694137252589,-0.18133071199841316,-26.630424534665938,-0.0005502289619393579,-0.007530478899240923,-4.918731067167613e-06,80535.39893098356,,,
7.29,-1.5393624316197714,-0.179152930045756,-26.617114980610637,0.0015258935415959959,-0.0065651739378571414,-0.00018246766078451596,,,,
7.3,-1.5460806297622338,-0.18643992809244123,-26.603790483650826,0.001158250332157512,-0.005294524096654567,0.0005923530185603614,80495.94188166205,33.49878430506335,-99.33816386597596,1899.8569734059186
7.3100000000000005,-1.5450818799727277,-0.18454590511699656,-26.588696657741316,0.002079085237823299,-0.005685736508800733,-0.0009109270210706643,,,,
7.32,-1.545731643420693,-0.1826161641932091,-26.577820637565736,4.5903937812098944e-05,-0.005588895433813739,0.0005019040695875862,80455.6779652757,,,
7.33,-1.5463662466073471,-0.1820849631592758,-26.564415955073382,8.597567733921473e-05,-0.006412686896721994,-3.441959239753354e-05,,,,
7.34,-1.5485189197090212,-0.17667673469697198,-26.547282648296996,0.00040834949532241667,-0.005746631825685872,-0.00013624394742476416,80417.11742293769,,,
7.3500000000000005,-1.5482391205206694,-0.18171892399755477,-26.53143459034307,0.0006694583535771831,-0.004643295813190264,-0.0011123167773390743,,,,
7.36,-1.5507400905434816,-0.17786484742454828,-26.514710887675747,-4.2835126062918424e-05,-0.006305469291172363,-4.761391371468857e-05,80376.15806327565,,,
7.37,-1.5518560990807968,-0.18482641801321073,-26.49773375404425,0.001047227949817019,-0.005052268017422983,-0.0024903680487369036,,,,
7.38,-1.5527490907979797,-0.17948057103559778,-26.485701882300393,-0.0005367644648300022,-0.005709499370740765,-7.992495307558826e-05,80337.06315193555,,,
7.390000000000001,-1.5608720825878346,-0.1883824402912918,-26.468297970750253,0.0023662375319285283,-0.0069792942787224805,-0.0015804998774383084,,,,
7.4,-1.5524929180741218,-0.1843268066135058,-26.455151448183997,0.0004543399303888504,-0.006837969737366988,-0.0006877066767359194,80297.18973914161,33.4987699219242,-99.33819013918988,1918.2812808174401
7.41,-1.5583675287752985,-0.1809120853383004,-26.445481874454046,0.0004362009443359266,-0.004720670141879196,-0.0002816900003624605,,,,
7.42,-1.5593725574886523,-0.18525598226619341,-26.425434984246266,0.0017561067004782205,-0.00593840678297464,0.0002708907705860288,80257.84014175265,,,
7.43,-1.55877842547537,-0.1794832044900966,-26.419434262436546,0.0020281877389045845,-0.005195526184960843,-6.941934751301638e-05,,,,
7.44,-1.5595454592622733,-0.18814242985121438,-26.40501614432431,0.00032618382922831315,-0.005168428697856841,0.0014104338289414157,80218.09529644235,,,
7.45,-1.5641780796475673,-0.18001618451321022,-26.39355900017323,-0.00029178609653491715,-0.006718446922893385,-0.0007718297519652924,,,,
7.46,-1.5620820469980001,-0.18278509382197033,-26.378238116751508,0.0008897609123477716,-0.005203714180724283,-0.00028750040148917496,80179.92486225997,,,
7.47,-1.5625787310961687,-0.18742591077129522,-26.35730480842615,0.0011145834424130334,-0.005778229196787455,-0.0007243789944720169,,,,
7.48,-1.5640711505782068,-0.1863086029969163,-26.352129593701118,0.0013662053356929768,-0.004227701654519538,0.000716173555661436,80139.75255392572,,,
7.49,-1.5667058963717548,-0.18543931597282792,-26.33131053356824,7.337499353843378e-05,-0.005953181760214247,0.0020888033566678617,,,,
7.5,-1.5684740472704946,-0.18858845124758955,-26.322947106688435,0.0005708251115016962,-0.005690213597461666,-0.0008772121735730647,80102.5054596607,33.49881324003023,-99.3382301824796,1941.0884069112083
7.51,-1.5653528268359245,-0.1806717609229481,-26.306764239745856,-9.884358001489596e-05,-0.0038652266027767593,-0.000763632286772331,,,,
7.5200000000000005,-1.570096699118131,-0.18510416516360165,-26.281807683326104,0.0017160371919596451,-0.007233227892124146,-0.0008035764993916211,80062.50295363893,,,
7.53,-1.5717172808913638,-0.18724247995974605,-26.270587174095933,-0.0006920117040156698,-0.0041393751591140195,-0.0008539337700022158,,,,
7.54,-1.5735839484426257,-0.18799808504285112,-26.25960624336169,0.00059018781645556,-0.006752342517901331,-0.0024876665407333838,80022.81040686514,,,
7.55,-1.5739080894430924,-0.18440800958046893,-26.244526795303766,0.0011254407272596034,-0.004988558684424977,0.0006999999850023323,,,,
7.5600000000000005,-1.5800217055397883,-0.19525017943171477,-26.228808110989906,0.0013361320242913847,-0.007553407321803469,0.002557571639356916,79984.21571094783,,,
7.57,-1.5686761911726017,-0.1900839990166204,-26.216833625810487,-3.3638980010020515e-05,-0.00708813235576075,0.0003010934403782389,,,,
7.58,-1.5759831503283852,-0.18117142729858152,-26.209533345989385,-0.0005715150148490939,-0.006099801189975936,0.0012797658081145642,79944.7966217139,,,
7.59,-1.5777539509251575,-0.18505275912291208,-26.188669821740294,0.0025979279935465574,-0.00857956564464064,0.0003583503454520205,,,,
7.6000000000000005,-1.5770136661649352,-0.18464242388519794,-26.176136255071977,0.00046814805449389295,-0.00685252596664203,0.00011337614400832323,79906.28074232429,33.49882849045331,-99.33811945349335,1954.1380394197474
7.61,-1.5826713928593366,-0.185762781706854,-26.155500290433615,0.0026905932955010575,-0.006647170374136747,0.0008702341413011712,,,,
7.62,-1.5812379508412706,-0.18384262899230133,-26.14112188038793,0.0008382474964386972,-0.00673760279329549,-0.00025806653470987126,79866.94437661002,,,
7.63,-1.5836585241970496,-0.1924800098872905,-26.131471197834216,-0.00019441216293544035,-0.005634749482788246,0.001233702912822375,,,,
7.640000000000001,-1.5838837495073221,-0.1805859499641352,-26.115851035182377,0.0009797289199305705,-0.004291717671058534,0.00046379279453621425,79828.9143953991,,,
7.65,-1.5911738071299781,-0.1861668599925917,-26.104668428229537,0.000633055214150943,-0.006052776611981776,0.0013105404760546426,,,,
7.66,-1.5869738349962441,-0.18549228218927394,-26.09146532952115,1.9042271908416503e-05,-0.0065604859979205956,0.0007361874153818972,79791.14236489314,,,
7.67,-1.5891869989585568,-0.19026623219863295,-26.078231870910795,0.0004494126304144481,-0.008338697558400396,0.0011970309266293837,,,,
7.68,-1.5926320512268715,-0.1881728589847857,-26.064224146997887,0.001202223783014582,-0.0053054547640263875,0.0011424666774629204,79752.24041766478,,,
7.69,-1.5894506380634092,-0.18096947786217302,-26.055837213021405,-0.0005187834655563194,-0.005300814101347861,0.0004781967913004435,,,,
7.7,-1.593679419185731,-0.18521342803388344,-26.03994344868163,-0.0006169129589789807,-0.004354662195495602,-0.00040121085421354586,79713.55953104775,33.498815882789344,-99.3382215409291,1973.138849626393
7.71,-1.5906696876420963,-0.18536178788311777,-26.032330801660024,-0.0003323819904447972,-0.006536561668484143,0.0004753396592935134,,,,
7.72,-1.5916217125568255,-0.18620144494561292,-26.01976489321337,0.0016511530264156935,-0.007794991947110483,-0.00011251376011651263,79674.4974985501,,,
7.73,-1.5954199895490244,-0.19415833123558593,-26.00411020250769,0.0013278340884513933,-0.006383600682337669,-4.316791959736472e-05,,,,
7.74,-1.5982596885959763,-0.18622679402035422,-25.99075579095207,0.001248886237920862,-0.00732834655765562,-0.001306736175021089,79636.4708737751,,,
7.75,-1.5963112094051508,-0.18996870898150903,-25.971385368498744,0.001547281181090324,-0.006341315310338667,0.00032259678705164296,,,,
7.76,-1.6042186625701151,-0.19205874193531605,-25.960835650350813,0.0015446998855071017,-0.007472277054641343,0.0007738247827635659,79599.01954494942,,,
7.7700000000000005,-1.5993829102386934,-0.18473300034085915,-25.939504503127356,0.000659796350307053,-0.006282113617694028,-0.00037306088760833957,,,,
7.78,-1.6006601801117555,-0.18872986010505413,-25.929655431265523,0.002604221758772441,-0.006679246649065447,0.0004913953444099594,79562.21476841175,,,
7.79,-1.6076602677406147,-0.19208908775691796,-25.91331772528717,-0.0014374044233758571,-0.004833147785472028,-0.002232111664401147,,,,
7.8,-1.6027002957773036,-0.18918353193302095,-25.90140514624872,2.937783929075064e-05,-0.00660488679483343,0.0009943174853892017,79523.63615539257,33.49881078738767,-99.33822595926826,1997.8818569739153
7.8100000000000005,-1.6050836293624708,-0.18981167736982166,-25.894217554572915,0.00011376832021594272,-0.007292620083862463,0.00019256912976695656,,,,
7.82,-1.6076890874136738,-0.19301513200508708,-25.881685584064105,0.0011967471056141467,-0.007993143227982672,0.0009071341776093111,79485.58487545133,,,
7.83,-1.608248633993429,-0.19337425559706337,-25.87434655811215,-0.0008898902776410087,-0.0061978814406982155,-0.0009918173171470945,,,,
7.84,-1.6076967880704813,-0.1898927037682492,-25.852030827466304,0.0013967822754422784,-0.0048517709057933405,-0.001845712962844776,79449.27828697962,,,
7.8500000000000005,-1.6145042803632137,-0.1863252827348154,-25.845094585598186,0.002077394497039418,-0.008169637215114734,-0.0010845554487662102,,,,
7.86,-1.6179703425180798,-0.1924252618400178,-25.830646922307597,0.0015678867189546826,-0.00664085264785718,-0.00027698460570824943,79409.28051857324,,,
7.87,-1.614715269471351,-0.18875593200175347,-25.822184195819176,0.001151161541512876,-0.0076858260303002916,0.00045774862804871125,,,,
7.88,-1.6181676601082484,-0.18958337278645698,-25.80508824055996,-0.00036018139989921053,-0.006883232345057386,-0.0006347064993019287,79372.83760603139,,,
7.890000000000001,-1.6158780673442772,-0.19813409630434706,-25.79769232537134,-0.0003966383225700741,-0.004259773563244461,0.00035799723401975456,,,,
7.9,-1.6163379368210076,-0.1839108824050536,-25.778338615635874,-0.0010797688327244957,-0.007606565251305412,-0.0004031132298569928,79335.2116575311,33.49879109229504,-99.33822423392226,2018.8718475895553
7.91,-1.6219370965737594,-0.19288437444103476,-25.764544401734693,0.0010282441124512373,-0.007824726441709689,-0.0001438072048392433,,,,
7.92,-1.622695454574549,-0.1864125263318914,-25.752595710377474,0.001181671167928255,-0.0070078436554813885,0.001138672427850602,79296.67854218573,,,
7.930000000000001,-1.617744168879035,-0.18801363646196756,-25.73501681545135,0.0002684363788794217,-0.0071052780828100145,-0.0012117548843902331,,,,
7.94,-1.6230241267563763,-0.19051134498986216,-25.727079721950965,0.000925483976476599,-0.006490662120128099,-6.387452991020809e-05,79258.92335004351,,,
