time_s,accelerometer_x,accelerometer_y,accelerometer_z,gyroscope_x,gyroscope_y,gyroscope_z,barometer_v1,gnss_x,gnss_y,gnss_z
0.0,-0.004254618764368082,0.0012523712367813705,-9.778309305568337,-0.00018668356392394122,0.0006446249476671608,0.0009965355985596515,96454.18486370973,33.49861174941459,-99.33763796690046,420.19466355366853
0.01,-0.00047768160849945344,0.0025551853448098085,16.58151541704743,-0.001511892781007635,4.318936643527728e-05,0.0001341555287047928,,,,
0.02,0.0014442347274224048,0.0005261549784230015,30.068607802644973,0.000943513867939241,0.0012928726867078057,0.0019055267427873922,96453.55907290839,,,
0.03,0.000987551822544677,-0.0009396522270153374,43.55406555390092,-0.0010015611905981488,0.0013161917959271395,0.0011564449266704246,,,,
0.04,-0.0019773324392962023,-0.0008014140139239365,57.054106920139404,-0.0002289525219192483,-0.000617572393641227,0.00037178072952043033,96454.04751731934,,,
0.05,0.0032635405012848206,0.002833877481762906,68.57312981910485,-0.001357925480358374,0.00021910130970394866,0.0009115188682567756,,,,
0.06,-0.0034202002619055155,3.8028640637748046e-05,80.08581914598265,-0.0005830728200686481,-8.802870767363671e-05,-0.001549263131421632,96453.46649887733,,,
0.07,-0.006806032691118136,0.0038459876063161222,83.50545960197995,0.0008498369935022321,-0.0013046244080717193,0.0007960353280322981,,,,
0.08,0.003263450962322049,-0.004152139181938911,86.85571162593313,0.0004886643195726184,0.0014483124428120678,-0.0014095811158146515,96451.84097685853,,,
0.09,0.004117093089028993,0.0009041304414048786,86.29204231244093,-0.0009345333798764595,-0.0006696156711794612,-0.0015277742221039127,,,,
0.1,-0.00039514563287793003,-0.0010128669435598067,85.6767692313014,-0.0002973890692691962,-0.0010828111289972694,0.0008627610840160331,96451.58898893153,33.49867175030176,-99.33766676157262,417.8162373905013
0.11,0.00571912328584974,-0.004104763189273028,85.18217895209398,0.0009329976425492273,-0.0013578810617589597,0.00044354667697844277,,,,
0.12,-0.0038225769218683432,0.0020697942660327473,84.68512280003907,-0.0013014670873761692,-0.00028565817712826854,0.00010951524216644823,96449.59430071588,,,
0.13,-0.00031818284364799746,0.0025373921610092258,84.41100452144467,-0.0005239252693383876,-0.00027935977940735134,0.0019761973043558065,,,,
0.14,0.0012400630227234683,-0.0013610815726491977,84.13241057121722,0.000810041781651414,0.0004259826982485285,-0.0016270786879841767,96447.03657125271,,,
0.15,0.002436017140325598,0.002803373241737456,84.13394746858572,-0.00015939088037930654,0.0012602334370605927,1.3697604915297523e-05,,,,
0.16,0.0025163162018638735,0.002130128079412804,84.12778827064244,-0.0007190129827915897,-0.0010322858965244829,-0.0003827664107640729,96445.29390281948,,,
0.17,-0.0043505706655474295,-0.0041593746590654485,84.25977440574208,-0.000668438017498889,-0.0014378243093304058,-0.001260692482245537,,,,
0.18,-0.006668823678772296,-0.001293294981812963,84.38867281636931,0.0009656691605298056,0.0007709847690326346,-0.00234560909168022,96441.65842062981,,,
0.19,0.002794535599680647,0.004294617775684404,84.37047398043157,-0.0009798987917394835,0.0011786104464261728,-0.0016178672894090753,,,,
0.2,0.0052159055241822235,-0.004268739975312863,84.35064695398341,0.001030090230977254,0.0011903442193385522,-0.0009368125854810874,96438.57850713716,33.4986124013441,-99.33761418447146,423.73284747538827
0.21,-0.004552389279407738,0.003042085144930772,84.37757336131669,-0.0004391098540984551,0.0008399030411657847,0.0014083106047401226,,,,
0.22,-0.003115853462118312,-0.002349732364378567,84.41418468282141,5.071703272449317e-05,0.0010072053872672028,0.001501019363478562,96433.65294500314,,,
0.23,0.0042170119233782615,0.0048942478941137795,84.45673342196822,6.493501887733355e-05,-0.000426211042260638,0.0001036883718948081,,,,
0.24,0.004000164442060482,0.0023763222009906076,84.50175282758184,-0.0002969577620929345,0.00012218317060198707,-0.0005575713934863801,96428.66182200439,,,
0.25,-0.00448547122865762,-0.00031792714910595276,84.53991146925317,-0.0009276988589342822,-0.000472956024038506,0.00040506430514277526,,,,
0.26,-0.005805841441680583,0.0037200818405429626,84.58030562016076,-0.0007047311854448948,3.212003532974798e-06,-6.14139745939311e-05,96423.2102334408,,,
0.27,-0.0001923117898617657,-0.003098719368014497,84.73564596809241,0.0013363357396608793,0.0002977581885728429,7.536997899343606e-05,,,,
0.28,0.0053327352682938384,-0.006452376357300386,84.87292455185269,0.0004874852907551941,-0.0007658652519186869,0.0009219979303825895,96418.85226839109,,,
0.29,0.003871875172625226,0.0011457255282415696,85.0281835774439,6.924433924656845e-05,0.0009262902502955977,-0.0009236722940383337,,,,
0.3,0.007928043447857691,6.669778359676347e-05,85.18241563388487,0.00011599862247802874,-0.0011736362231987618,0.0010345946087431726,96414.32062290523,33.498613019535156,-99.33763606913207,425.9675045306844
0.31,-0.0026026831442909773,-0.0018688217282782943,85.32032984577177,-0.0010269378696367516,-0.0005505736725647771,0.001809747054104129,,,,
0.32,8.730357640193185e-05,0.002324626568026671,85.47073208935795,0.0012036238779523471,-0.00023872851238210117,-0.0006387380518113081,96406.9715452286,,,
0.33,0.003247267006153056,0.00295399748695677,85.60586616437477,7.274498706198127e-05,-0.00014999474481843748,-8.572688559549414e-05,,,,
0.34,0.0030114462160177177,0.0007742716687218078,85.7503434621211,-2.1742196203519163e-05,-0.001234962233382481,-1.2943221513226491e-05,96400.70749113799,,,
0.35000000000000003,-0.0019811240043963612,0.00048589001621157825,85.8592220870607,0.0009575045012643966,-4.210358842493698e-05,-0.0009550414496492633,,,,
0.36,-0.002648336175612892,0.0006534866880319517,85.96860290715567,0.0017781773090988257,-0.0011759010930260452,0.0006286507533131328,96393.5699009628,,,
0.37,-0.002840195220434536,-0.003490425581118585,86.08681250407918,0.0025461258011618454,-0.0016775321457676569,0.0006410502610546769,,,,
0.38,-0.0029987770305362725,0.0006102252719622385,86.21689980985956,0.0021426953412627577,-0.000942304002369465,0.0013556248686509324,96384.97440717347,,,
0.39,0.001686471225395908,-0.0034287659457441885,86.36462403007809,-0.0012594421020942236,-0.0006132496624848139,0.0007044146243456433,,,,
0.4,0.005790038091283737,-0.003375757766411985,86.51108395925789,-0.0019182221543470484,-0.000787218506838874,0.0010484670268054647,96378.80469664466,33.49865358516125,-99.33762843087975,418.03573636233295
0.41000000000000003,-0.0028029550054278663,-0.004736386786141934,86.84648534279772,-0.0004770949996163528,0.002659010122689292,-0.0006050664323381266,,,,
0.42,-0.0047689633688537195,-0.003725591776708784,87.1967304438013,0.0007051722980495376,-0.0006318423176388868,-0.0015001029656818167,96368.16732364686,,,
0.43,0.002164545403260597,-0.003348728596253853,87.32520890526905,0.00091579366548821,4.126583540900342e-05,0.0010481011437157796,,,,
0.44,-0.0007425934939434462,-0.002637606019936273,87.44267221689965,-0.00034492920234946466,0.0002864756958262988,0.0008454660923658071,96360.70980641588,,,
0.45,-0.004327104701159276,-0.0012457684695495158,87.61475917561371,-0.0007730792154759309,-0.0007467434450013695,-0.0007241150974051809,,,,
0.46,-0.004164735534792082,-0.0003856796686716918,87.77824379676763,0.0006858595025923795,0.0011035742009209819,-0.0005130122583944216,96350.59223303516,,,
0.47000000000000003,-0.003408815046050143,-0.0014389537575135488,87.88205593486637,-0.0007829847156314194,-5.514707157583227e-05,-0.0003906334054936192,,,,
0.48,0.0019419401815402805,-0.00013264418099953753,87.99968526698916,0.0012708051963293639,0.0006797867773534715,0.00011412988167229938,96340.86862082846,,,
0.49,-0.0030323724212762324,0.005316461218829947,87.93421635761632,0.0007118202460536982,0.001321110714852319,0.0009730372036150525,,,,
0.5,0.003617041345814023,-0.0035703461872752165,87.85784223296892,-1.2260734701088863e-05,-0.001994662470296162,-0.0004271373863335681,96331.63955255049,33.49861973334752,-99.33758295169525,420.96500137962454
0.51,-0.003794683908936128,0.00556347393761955,88.06948256238739,-0.0006155990411549316,-0.0007651372791646796,0.0011559262321439235,,,,
0.52,0.0020993951020047644,-0.0016492585656549433,88.3045214860105,-5.6651945793081735e-05,4.366380325351047e-05,0.00021508290828386377,96321.4839756509,,,
0.53,-0.00257443070629078,0.00012854079673674677,88.50798667733099,-0.0009119392882112972,-0.0014379970086931331,0.0010467813051006556,,,,
0.54,-0.0054866344050151904,-0.004424738462090975,88.70781329225603,-0.0013418078082733408,0.0010178181818083555,0.00015426567916490688,96309.77580654493,,,
0.55,0.002219877986565841,-0.000802035832899879,88.94639493932802,-0.0014771600295403835,0.00044136222535429495,0.0009352844099133179,,,,
0.56,-0.002415553312823959,-0.00010089142196108014,89.19832972527513,-8.560293554990638e-05,-6.339427653377934e-05,0.0008188933488936812,96297.78786760582,,,
0.5700000000000001,0.005784949407690313,0.0028132011883108586,89.39392234150617,-0.0006297297256841394,-0.0002621535495436161,0.001337929403786329,,,,
0.58,-0.0018969926573204716,0.0008334218683929555,89.59876783891494,0.0017572216257949155,-0.0011849587384589922,0.0011098562078837603,96285.30352744638,,,
0.59,0.005203725675967079,-0.00027305686007834436,89.76187862279916,0.0005112847061214144,0.0005890315436358772,-0.0008224327678411094,,,,
0.6,-0.003971700580374387,-0.003286456758984343,89.92465580680519,-0.0020347454651749412,0.0003141356794765859,-0.0005030691171112427,96273.11395419322,33.4986251737312,-99.33761070792649,433.5635279235866
0.61,0.0014379201988223382,-0.007015197609490039,90.07255880360945,0.0003657220997095652,-0.0001319069090434086,0.0001758880639277435,,,,
0.62,-0.005024957077784891,-0.001594000142237315,90.20888366836604,-0.000944413521944527,-0.0016627912987677868,0.00022330800528030391,96260.61932174396,,,
0.63,-0.0012623914462521503,-0.0016632513686032397,90.3952529196948,-1.5483872499531937e-05,0.0016201390050466476,0.0008590029010187935,,,,
0.64,-0.0018525109015900545,-0.002337588781693939,90.5741684317721,-0.0010749543515732253,-0.00046360481710040855,0.00046651757044642247,96246.14102569071,,,
0.65,0.0010532667789679105,0.004471567728102233,90.829100620648,0.0005351898497934522,0.0009234367386432959,0.00037805734439239297,,,,
0.66,-0.00197083247788697,0.006303292369395153,91.09241403336507,0.0004168718266118775,-0.001694394715146022,0.0007368536190931675,96232.76538964854,,,
0.67,-0.0046963947387102445,-0.003398668356375915,91.37777591557251,-0.00042744661907333806,-0.00036729380893593824,0.0008164276571916542,,,,
0.68,6.058225013582612e-05,-0.003797866691822276,91.66844218241783,-0.000545939037364974,0.00036177918319079425,-8.980344537005742e-05,96218.9725699075,,,
0.6900000000000001,-0.005042123096536685,-0.0014837469001448876,92.0029702278548,-0.0007567308605372499,3.9582206839482867e-05,0.0016949145818397893,,,,
0.7000000000000001,0.0012010363790984605,-0.007901461757740187,92.34027166915868,-0.0009914564418123154,-0.0016912932450935535,-0.00015216988637734122,96203.46626910027,33.49863815023493,-99.3376197077695,440.3949722124823
0.71,0.0016640685202880482,0.0017836152590129677,92.7049208224285,0.0003685886706683777,0.0025065339746812294,-0.00029236723508431294,,,,
0.72,0.002143689606069931,0.0017440453648065635,93.07437039418672,-0.001242106151052432,-0.00011668919147319138,0.0013130024700076582,96188.6688245196,,,
0.73,0.005141183861425635,-0.003257864398300895,93.4655942288343,-0.00048060867268707314,0.00019117590413860925,-0.0013685469451543571,,,,
0.74,-0.0033094841838184627,-0.0011515354695511755,93.86574759194993,1.7662065983433196e-05,-0.0017712257007740486,0.0012743145049222543,96173.06076237305,,,
0.75,-0.00030193287208034943,0.0008535148319693629,94.277625927677,-0.0006452039194182815,-0.0004247124695399547,6.578474317836449e-05,,,,
0.76,-4.344607247633269e-05,0.0032100301642456934,94.6899757163977,-0.0007147183082629598,0.0006736523352145075,-0.001835164629042756,96155.43910485978,,,
0.77,0.00019034280355174386,0.0047159735068595205,95.10815071855991,0.0015737992506146164,0.002086083978534488,0.001949732018160056,,,,
0.78,-0.006081229662630024,0.0012814201279006143,95.53219806966048,0.0008399588946674612,-0.0010136653292007708,0.0004150795709933111,96138.80377246653,,,
0.79,-0.001839029275633443,-0.0006711809154303817,95.91940218208543,-0.000303074090689188,-0.00040059590116371647,-0.00019895290440112692,,,,
0.8,0.0009622247557894641,0.0033800082116189063,96.32044038660027,-0.001676033446082517,-0.00012157066403922839,-0.0007967916993855548,96123.06157851066,33.49858397999597,-99.337605156758,431.51846910724805
0.81,-0.0004834964123473818,-0.0005886069257580418,96.6564202754759,-6.994865683147085e-05,3.5552219076322134e-05,0.0009053387664366403,,,,
0.8200000000000001,0.0006193182327611852,-4.536410614320456e-05,97.00262140163528,-0.0010370431293201573,-0.0013501512102683981,0.00043636305079227387,96105.04785958021,,,
0.8300000000000001,-0.0012819666749670923,0.0046097548964214065,97.28842130788847,-0.000364381313054087,0.0007083601628776255,4.0478451366743875e-05,,,,
0.84,0.001731756266639198,-0.0005467624970496169,97.58660352936238,-0.00014181267661409863,5.2668043993302787e-05,3.953851397085975e-05,96085.79396387635,,,
0.85,0.0003121132581910984,0.000218886300062414,97.82579598805452,0.0020257577311561204,-0.0006461770545681907,0.002065851632199239,,,,
0.86,-0.0012445758693360098,0.003372513457782044,98.07381355463109,0.00275846047031807,-0.001232361686029561,0.0006154950296210805,96068.48384695945,,,
0.87,-0.0030592534187464672,0.0009316799572164267,98.30067944930006,-0.001675380857567561,5.236764856069945e-06,-0.0006238799297577918,,,,
0.88,0.002789503027944845,0.006720683795211703,98.51070189554987,0.0011345783596172904,5.823640090196317e-05,0.00033822398328096014,96049.77037870437,,,
0.89,0.00011400624544620377,0.002343055373136378,98.73322309867044,0.00026823038842447536,-0.0010085086806837771,0.0002901705175642466,,,,
0.9,-0.0019422302665658658,0.0003112956317770527,98.9582427321856,-0.0005505990550769647,-0.000787355609063262,-0.00012897121190013974,96029.62296733844,33.49861534309732,-99.337675217224,449.92018597562736
0.91,0.0009048926200065693,0.0005821756643271809,99.1849138729737,-0.0009472838540450827,0.0008659187327947107,-0.0009927079442905576,,,,
0.92,0.00036409294985639145,-0.0019170883364942454,99.41962865253006,-0.0017523050907224899,-0.001264794992665522,-0.0019513135346518559,96008.71314819437,,,
0.93,-0.004703114807866159,-0.0035893272034530433,99.63039627241608,-0.00038699964597905216,0.0010847936653672148,-0.0004134421406761585,,,,
0.9400000000000001,0.0022772527292201665,-0.002284640422743368,99.84214033806015,0.00010217287848709463,0.00022043084335609134,-0.001560390112784059,95988.28076025903,,,
0.9500000000000001,0.0046587767120926825,0.0001314095274903215,100.02633818448805,0.0012569126473535946,0.0018783832564509152,-0.0023182983713256186,,,,
0.96,0.002310359131141405,0.0009769309240035345,100.21805359421404,-0.000547719660781357,2.562917492695815e-05,-0.0016619635889085459,95967.55160658316,,,
0.97,-0.001868557396596297,-0.0004770776244655641,100.36019150837528,-0.0007466044052692894,-0.00038858128747352403,8.812236770447685e-05,,,,
0.98,0.0012710273386787709,0.003973524381168891,100.50292094626808,-0.0003318767096048405,0.002197184296859315,-0.0012898887778701612,95945.07097264829,,,
0.99,0.0026513487645835714,0.004748025721551123,100.58580710087081,7.986138497910614e-05,1.7471564659127252e-05,0.00036412522549872703,,,,
1.0,0.001142195556684938,0.0019272357059416667,100.6674926010835,0.0005399691395595135,0.0022481776210565526,-0.0006760052912138046,95923.71615416527,33.498632446926166,-99.3375706859678,458.46908251798527
1.01,0.00030212602430877505,-0.000926730831429571,100.71961581792067,0.0012932461499906738,-3.8339244311694444e-05,0.0018707623869617667,,,,
1.02,-0.00815137801989369,-0.003106026514791515,100.76769124246955,-0.0003883052917926589,-0.0022787370330587683,-0.0002749000583067591,95900.19714108108,,,
1.03,-0.007427553608685433,0.003305637403049761,100.8027643539678,0.0003790267061938544,-0.0006449899768970123,0.0024218769243666816,,,,
1.04,0.0001727642076797486,-0.0017458718657279838,100.86045480420151,-4.489450942196359e-05,0.0022933968795866588,-0.0006302102602729569,95877.13074073227,,,
1.05,-0.004535979206217834,0.0015542388836554128,100.92292246583644,-0.0003611097711812717,0.00036769945097773,-0.00029783777880370264,,,,
1.06,0.0023098237616060355,0.004675853289953481,100.99535018497693,-0.00012176855461031125,0.0005501527587155062,-6.099696712159889e-05,95853.8580910145,,,
1.07,-0.00033924287146853147,0.004367461144635098,101.10259390260613,0.001018929758846409,-0.0005047127393988642,0.00019885406434879096,,,,
1.08,-0.00418695271637414,-0.0005217696588070628,101.21239286860927,0.00047157860100111823,-0.0005591951045744318,0.0014271552732158092,95828.92464682557,,,
1.09,0.001683660229962997,-0.004467272444239721,101.33418539435966,0.0014340897557330767,0.0001194724680084795,-0.0007188010610092963,,,,
1.1,-0.0007549848371778319,0.001456245724134336,101.45030999668136,-0.0008062788247594609,0.0006814454162629566,-0.0008669612578098951,95805.13573956913,33.49859461736842,-99.33762365045047,474.0478614788527
1.11,0.0033184831619499718,0.0033731285023176003,101.55686357136813,-0.0007829645356322943,-0.0007805687152257705,-0.0002876106021445906,,,,
1.12,-0.0026523407693724707,-0.0033453137459218425,101.66719149937786,-0.001590021711150547,-0.0009706548104368484,-0.000361500026717059,95778.57235763635,,,
1.1300000000000001,0.0030680962666979486,0.0007414686742065491,101.75780620952023,-0.0017840384365430762,0.0009968732103772054,-9.055907506121556e-05,,,,
1.1400000000000001,0.0003589756701688773,0.00021923870725822637,101.84521460291711,-0.00029514167875200747,-9.878179980695038e-05,0.00045597387380781265,95753.36972400722,,,
1.1500000000000001,-0.0018750778255689467,-0.0012827457547907042,101.91859555323447,0.0007489784255439706,0.0004804739931562716,7.554744465866621e-05,,,,
1.16,0.002878689331801511,-0.0029485318989012255,101.9986570665959,-0.0007954191885934048,-0.00031447464073662486,0.0008619935327705592,95727.57710465239,,,
1.17,-0.0025648536988505917,-0.0034947698451343275,102.0703804400929,0.0007360463940335126,-0.0017804977172647884,0.001545552675790999,,,,
1.18,-0.00018447129151531977,0.0011124379767599541,102.15054380631935,0.002210693942358086,0.0007926111484890032,-0.0009712654587377919,95699.63379626839,,,
1.19,0.004446119928964279,0.0023819326306215647,102.22973273888222,-0.0006735891309889084,0.0013451923113225104,-0.00011211886157430939,,,,
1.2,-0.004160268297079293,0.0038912488972502376,102.31411285746883,4.270930488928372e-05,-0.0002002853356050192,-0.0006128988559234621,95673.58249020879,33.49867060160889,-99.33757217031844,486.88751195462476
1.21,0.0030609722075825166,-0.00023428193729422466,102.40418896543723,-0.0006098060391330467,0.0008046048044480929,0.0013368717992518027,,,,
1.22,-0.0006391974215746714,0.0012344606455519083,102.48723192043856,-2.876521370107527e-05,0.0006103990112276788,0.000451215409681294,95645.21049432682,,,
1.23,-0.00015845873279622007,0.0023823299488221383,102.57425437604081,0.0010599995017835664,-0.00024724603290875017,0.000306844228262452,,,,
1.24,-0.001991031807998497,0.0030173243076889603,102.64170953658295,-0.0011317381753023156,-0.00045782363492225263,-2.9283752318280217e-05,95616.93632545491,,,
1.25,-0.006228389484257484,0.00524659710779529,102.69514779069084,0.0012255282887367398,-0.0018474974116782813,-0.0011298390904147014,,,,
1.26,0.002794793314385595,0.0010913831401943223,102.75970886562928,0.000526904102642382,-0.0007009480238652642,-0.0013023286615426908,95588.14101198739,,,
1.27,-0.0033563337600910057,0.0003798091281112993,102.81264930508738,-0.000492380544262525,0.00011790914151657439,-0.0010450968765545676,,,,
1.28,-0.001379220446073433,-0.004213199243456257,102.85896002533984,0.00022905682439712798,-0.0008934079759508535,-0.0026194192288454704,95558.85855158555,,,
1.29,0.0007001547768245779,0.0002706098267221226,102.90777868735012,0.00011857220419580132,-0.00043249054475113147,-0.0008190592023546481,,,,
1.3,0.003694010466002858,-0.0056585064377887954,102.94982211824475,0.0015530558436900707,-0.0012486365250352282,-0.0015881658749429337,95528.70446207294,33.49859781231623,-99.33761475090151,497.7201386983852
1.31,-0.0016724228506592833,-0.005874811523618672,103.02725077819589,0.0018266413187344112,0.0016339920402090407,-0.00017763649462196565,,,,
1.32,-0.001528266069011975,-5.620906118936029e-05,103.09543014368386,-0.00044704765923990247,0.0011691304347505153,-7.621586364320605e-05,95499.78245447516,,,
1.33,0.0008853729832228576,-0.0024689642555658555,103.19240621065374,-0.0006752055474556683,0.0005380571271578684,0.0006364564424783984,,,,
1.34,0.003196143276469243,0.005994939796791475,103.30228281827867,-0.0007152800708115458,-0.0005874039416950989,0.0014497102597375486,95467.83936243651,,,
1.35,-0.00032109037124679394,0.002569922343097804,103.408898210928,0.002922621170428987,-0.0018991547232243276,5.919922071143795e-05,,,,
1.36,0.004357431374757904,2.7588433058514532e-05,103.53090462055302,-9.437878865616287e-05,0.0007322907593372159,-0.0004397398802538341,95436.89614742176,,,
1.37,-0.0010517731693245262,0.00037486156443781906,103.66544241747206,0.0006755409732138421,0.0007385365098445396,8.735995062305421e-06,,,,
1.3800000000000001,0.00141118319364074,-0.0037613038456067965,103.80297813126649,-0.0012987026084679673,0.000332319511691281,0.00025391382359650695,95403.20319702696,,,
1.3900000000000001,-0.0012648747263093103,-0.001277067937426711,103.97949288511685,0.001608903419978174,0.0008616676479984653,0.0005438270461829844,,,,
1.4000000000000001,0.0004187369906869674,-7.076992416321289e-05,104.15694076972966,0.0011957685280051724,0.0001516006849395603,0.0007705938975996135,95371.10556908656,33.49864175689352,-99.33756543712957,508.21226732943927
1.41,-0.0007672494545553631,0.0033769317977823564,104.36793861792385,0.001546708702041096,-0.0003471690596458218,-4.501634436680437e-05,,,,
1.42,-0.0007472066717614032,-0.0026309218881992277,104.58680437507161,3.479736585573968e-05,-0.0011070643936237857,0.0002028554272897992,95338.6201869968,,,
1.43,-0.005548417336419962,-0.005705209215764573,104.75504497413381,-0.0004003020221402816,9.278450235382153e-06,-1.6006976050174703e-05,,,,
1.44,-0.004725637128438477,-0.006556971606013332,104.90955221588464,0.00011110532714178724,0.0007092643446314555,0.00029209300457072894,95303.77174712696,,,
1.45,-0.002561778156820288,0.0025712044270444277,104.98432709819987,-0.0005228101627896247,-0.0005451934707060153,0.00042950047097892245,,,,
1.46,-0.00034212418973326157,-0.005001088737223117,105.05521392882076,-0.00027725336833954743,0.0004956177211410916,-0.0008200746506085361,95272.06506548279,,,
1.47,0.003756622713364715,-0.005916934260280176,105.0351482260436,-0.0012852961810630394,0.0009392368865582292,0.00044856816490873504,,,,
1.48,0.001085980033332126,0.0036337088416515863,104.99473890709697,-0.0020250314687072102,-0.0008489751807333958,-0.00019626573115482065,95237.23347400378,,,
1.49,0.007814756328349506,-0.0009232307145589244,104.90613328545068,-0.0009932914763097754,-0.0006179621963469953,-0.0005879626880443232,,,,
1.5,-0.00043534500799623753,0.0034842518691761705,104.80395991614469,-0.00032440434279092437,0.00042628862877833483,-0.00016618601662924813,95200.89420619911,33.498654371745296,-99.33761524936034,530.2634656978669
1.51,0.00011318713104018437,-0.00027513536270896234,104.73846363595625,0.00031920603278972774,-0.001249901204296172,-0.00022043531554823798,,,,
1.52,-0.00013797079335366318,0.0013940028590636755,104.67260589335135,0.00044122315285384495,-0.00034358908701101525,-0.0008037023786551427,95165.49028140127,,,
1.53,-0.004888318270634185,0.0001704405765353363,104.6647116421757,0.001620109997755093,-0.00021018455886041477,0.0007278513761391026,,,,
1.54,-9.11499723077398e-05,-0.003239602732859047,104.64576157975387,0.00034438069672193175,0.0005803690113749797,0.0012258191810483195,95129.83529747675,,,
1.55,-0.0002984899107541053,0.001821575314815376,104.65357322076007,0.002284565081425899,0.000967262630929405,-0.00013912840466902515,,,,
1.56,-0.0030638133853788485,0.0018140739685752053,104.65773657199965,-0.00112822263973399,-0.0008284625887432957,0.00016663591020028536,95092.9144379182,,,
1.57,0.0023914605954613415,0.0032443710070133866,104.62575413139768,0.0003025287377366737,0.0010743473566075352,-0.0009856990016566796,,,,
1.58,-0.002366527403309919,0.0014095038644294517,104.5763777643558,-0.00031455276328562704,0.0007454083971430523,-0.000461402027766438,95055.80353047169,,,
1.59,0.0024699404448304966,0.0004761331698136897,104.49338438708284,0.0012076944025847267,0.0001927443600696732,0.001110384367419723,,,,
1.6,-0.0021953343688889855,-0.0016215155419489983,104.3996604733962,-0.002433723165311648,-5.308103429324936e-05,0.0010547977979765547,95018.39471704651,33.49863050641709,-99.33762914428895,541.1882762475833
1.61,-0.010462162405739764,0.0015639622172596082,104.24367317986464,0.00212384733659145,-8.950625336866807e-05,0.001217911249912805,,,,
1.62,-0.00019317193262931341,0.006341373312198323,104.07569660285343,0.0006898372435606102,0.00021211458377222705,-0.001495645553071838,94980.14303290813,,,
1.6300000000000001,-0.001903722043137311,-0.00640847976597681,103.88467869466123,-0.0015212244383211344,8.734350669828182e-05,-0.00098740872899465,,,,
1.6400000000000001,0.0021196230353223333,-0.0022865800261618993,103.67742206853511,-6.820351447309454e-05,0.0007778576876298356,0.0011388934296165836,94942.04644599184,,,
1.6500000000000001,3.3140512925131254e-05,-0.005560824892443302,103.48621383187643,-0.0005997967642189364,-0.0008385484134671003,-0.00044904845776421484,,,,
1.6600000000000001,0.003852274579848506,-1.5493347777641563e-05,103.29016402008139,0.00036177929910793396,-0.00014024205042939618,0.00034104515013676917,94902.79968337991,,,
1.67,-0.007785367661898074,-0.0012339371566039694,103.11943882543825,-0.0007273971732465005,-0.0007191475847860236,-0.0002797452862847269,,,,
1.68,-5.21081901734346e-05,-4.823111482202105e-05,102.9391139026733,0.0008139108369851057,0.0018011994903396123,0.001139695423981232,94864.03107984748,,,
1.69,-0.0006972576131564701,-0.004562876678988289,102.76707282220178,0.0002815420052364435,0.001667486544344606,0.00038576919849320326,,,,
1.7,0.0022429997248778364,-0.00395643597746853,102.60717474194877,0.000859744108296835,-0.0006304709191505321,-0.000943523700782964,94822.76801233717,33.4986096175176,-99.33759357991288,559.536596356919
1.71,-0.00020370169064544614,0.0032362548116606727,102.43712386158244,0.0007442367090854495,0.0006830203009358442,-0.0003686497812701795,,,,
1.72,0.0007717909492025391,-9.659854891872296e-05,102.2763408340008,0.0017157581677411469,0.0010676541974466275,0.0013562778811493717,94782.09015754772,,,
1.73,-0.0026007763534208793,-0.0008198589735517657,102.11715883124808,0.00032163594232270697,0.0011964371467838796,-7.803279734240251e-05,,,,
1.74,0.003985572158716127,0.002655099756728173,101.95555165612556,-0.0004683876505027886,-4.555596892716558e-05,0.0012130151124307897,94740.77538800407,,,
1.75,0.0039045191044618905,0.003749719601748443,101.81963867495135,0.0007487954229893286,-0.001206428232917943,-0.0011488278251879133,,,,
1.76,0.002224835587935784,0.00195641748957667,101.68452790630062,0.0008732523879349879,0.0011532452465435367,0.000492334361454615,94698.70925954366,,,
1.77,-0.00027559654258846035,0.0035719255474743693,101.5589403033148,0.00010201511320785304,-0.00018184819647508574,-0.0008169065356035984,,,,
1.78,0.002745152676280276,-0.0008323429645322531,101.44660589570321,7.125743317992327e-06,0.00032302343571739215,-7.87415398774871e-05,94657.36750896984,,,
1.79,-0.0005598697207224581,-0.004069126806154026,101.3476699616756,-0.00011756696152247627,0.0005403339488090061,0.0011420999861536437,,,,
1.8,-0.00038801161489071664,0.001323248874632157,101.25815791339521,0.0011992054740512235,0.0006429890791452602,-0.0002076304512264035,94614.51767648911,33.49867412991359,-99.33759318043495,580.7227367813543
1.81,-0.0014972446008755529,-0.005315128228095162,101.15164616610708,0.0015406765457968061,7.454957034335031e-05,0.0018585313337438733,,,,
1.82,8.73116674122978e-05,-0.0032328442148841126,101.03488122677359,-0.0002869713743879722,5.035900697759331e-05,-0.00011191721237130101,94570.84600439008,,,
1.83,0.0019909023764103696,0.00335666013928,100.88358498132625,2.109661609826956e-05,-0.0010991748982354954,-0.0002605709620512508,,,,
1.84,-0.0014647591998947695,-0.0009194303836910036,100.72198634019819,0.001427335170687986,0.0014760889807034893,-0.0002796774254088371,94527.54680387303,,,
1.85,-0.003892280908369698,0.0038539302387058955,100.50155711332026,-0.00149150716043032,4.828442398345069e-05,-0.0007024112600385277,,,,
1.86,-0.001296389150220456,-0.002512431294827477,100.27758576903251,-0.0003150665910847696,0.002404770210625697,0.0006047070852389325,94482.94157077021,,,
1.87,-0.004614317678130232,-0.004147270126108502,99.97911529868708,0.0004071330800679439,0.0002398819183885853,0.0008539074099593753,,,,
1.8800000000000001,0.0018379431194165544,0.005547336057182533,99.68756338808711,-0.00039161363078515807,0.0001820856949973953,-0.00026059046368623063,94438.27576820775,,,
1.8900000000000001,0.0028585318509820844,0.005131005415787318,99.3636953361825,-0.00117198867368751,9.182583242454944e-05,7.368143431285777e-05,,,,
1.9000000000000001,0.0006734745980608489,-0.0009958836410379692,99.03386998106097,-0.00036259605047478475,-0.0006417778984758075,0.00031079623698014467,94393.88672645787,33.498650311233305,-99.337617780615,599.3664447231328
1.9100000000000001,0.0042721423429899295,-0.00540399479824483,98.68395720509709,-0.0010460871360489098,0.000734972443425328,0.0016709068419477233,,,,
1.92,0.0033538066825431197,-0.00033497571068949325,98.33982346650791,-0.00018871942606654395,-0.00012196358868069379,0.0001897427712618676,94348.89666703656,,,
1.93,-0.005708619152336166,0.003679778316532011,98.01940468549104,0.001290307805247023,-0.00040674119381066106,-0.0010924383864313336,,,,
1.94,-0.008827089046159852,-0.001998086443854922,97.69088023201226,0.000325712166293733,0.00016689819710509,-0.0026716689846823832,94300.70226924159,,,
1.95,3.829491033533933e-05,0.006199753342384921,97.36561221433183,-0.0006594667511499341,-2.274655308479394e-06,0.0004928480469088749,,,,
1.96,0.0002218844829573789,0.0002286055844899785,97.04468444029838,-0.002015962876229189,0.0004712730822901656,0.00041943583804898146,94254.2267258321,,,
1.97,-0.00016605836363237813,0.004987164640277749,96.69004859388124,0.00016592774745532584,-0.0006267678072754725,0.00020853026841796595,,,,
1.98,0.006386187568716927,-0.0048048001068480015,96.32769653078817,-0.003303766334871935,-0.001742859673632534,-0.001678963592940786,94208.27468628908,,,
1.99,0.001208205185276741,-0.004359480509280893,95.94673253329813,-0.000731940793176427,0.0003663600833331119,0.0009341535386928025,,,,
2.0,-0.0023922272933210157,0.0017781187553861288,95.56937125394836,-0.00091897219013639,8.902493330748008e-05,-0.00012574261310327418,94160.20510369299,33.49862494289239,-99.337605223539,607.4914382736997
2.0100000000000002,0.0027735028311501853,0.0022310374020283216,95.16686085389662,0.00028935974740486824,0.0012050429344886543,-0.00059645590265622,,,,
2.02,3.391491545076218e-05,6.349126000135178e-06,94.76783586745728,0.002201184025590739,-0.0006966510080831864,-0.0025068861693969963,94114.91810554112,,,
2.0300000000000002,0.0016939141859951578,-0.000297891158432251,94.32277908622899,-0.0012768968715547062,-0.0008676598284005189,0.0010426529402194692,,,,
2.04,0.0009518747533401524,0.0035306549900291913,93.88679134550652,-0.0009406946927811495,-0.0003423240502052795,0.00040292004295550604,94064.37526794529,,,
2.05,0.0032260367151297413,-0.001671051451889246,93.36701986566135,0.0001598119585980033,0.0009477674705452002,-0.00037872449902454195,,,,
2.06,-0.0008853919781790274,0.0038980355863026447,92.83271361975672,-0.0009873844966784852,-0.000909943809065287,0.0011169277129104086,94015.22766056284,,,
2.07,0.004664339791810198,0.0003233521099958304,92.19578849893364,-0.0005544994434791137,0.000955598751015729,-0.0003627145168136269,,,,
2.08,-0.0024020195188741928,2.1266897486767276e-05,91.5573624912033,-0.0011304764622084437,-3.4842562728588746e-05,-0.0007583382668489299,93966.18538472173,,,
2.09,0.00043922443909410536,-0.003020770989404688,90.85334530816334,0.00011590389101073568,-0.0012364186085959752,0.000327623391196826,,,,
2.1,-0.004803112353904796,-0.002280065417350302,90.15530674694203,-0.0015546273967840263,0.0006506408703241443,0.0005686730713008145,93916.58799078612,33.49861583453251,-99.33758151080526,634.2598008127576
2.11,0.0006126084628606597,-0.005514936045827899,89.42337829529971,-2.57987668867613e-05,0.0010754439303407365,0.0013610539415418042,,,,
2.12,-0.0025938131161912436,0.002710557743473826,88.68944297028426,-0.0006210033006324019,0.0007858949525614814,0.0013761604707317927,93865.89394885885,,,
2.13,6.288133193630701e-05,-0.0009780736658161597,87.97604307206802,0.0004604628102937604,0.00039995912773948584,0.00024196518485822247,,,,
2.14,-0.0008090488838419284,-0.0018695993690324502,87.25901130357188,-0.00032121982852144235,0.0006181896678496929,0.0006817880991168838,93813.98944728606,,,
2.15,0.0017878318418134915,-0.0017431116284935724,86.60309173612572,-0.0006708095242047486,-0.0012128473911580315,3.534373036142849e-05,,,,
2.16,-0.0033491879929305616,-0.0057851547997526545,85.95598159841369,3.87365459677643e-05,-0.003315174525026787,-0.0013365849414798557,93763.69473242505,,,
2.17,-0.00010317589305141979,0.0005388584868094404,85.33520654503931,-0.0007304423662757223,0.000295489391707167,0.0010540871043895317,,,,
2.18,-0.00315509609961501,0.004952125738150051,84.71153720329724,0.00046492545626235557,-0.0009920501006398718,-0.0004950276310780768,93712.38378654023,,,
2.19,-0.006262281249672167,-0.002042480778199333,84.10568125384884,0.001674934712013608,-0.0002633326141099041,-0.0008180720975563646,,,,
2.2,-0.0035916073142301702,0.0016654927910293568,83.49802724844307,0.00036037579437563316,0.00013358115270641852,-0.0006056253355597222,93660.97778377004,33.498669397321336,-99.3376000896872,657.5610292347078
2.21,-0.0030548883783994537,0.005472362305017218,82.91245344434279,-0.0002664509377673512,0.0002916313558941782,-0.0009309901318795294,,,,
2.22,-0.0006911027016570334,-0.001921521933643588,82.32367129089768,-0.0010540323178542463,0.0007278700678080905,0.0001518246917603819,93609.99139019856,,,
2.23,-0.004356388342200139,0.004970020545997172,81.7404669665727,0.0012788972912086312,0.00023169930364125936,0.0010474633899481172,,,,
2.24,0.002280932380839351,-0.0026706374119662576,81.16467696478057,-0.001877126766724204,0.00197617628351631,-0.0001826927752316297,93557.21905716936,,,
2.25,0.003009730246210565,-0.0011811574753865229,80.6091613427687,0.0001558192696660047,-7.40379308565256e-05,-0.0014061631451361524,,,,
2.2600000000000002,0.0023229356423499882,0.0038677189001167065,80.04702866736045,-0.0009766509074486238,0.0005560310313196793,-0.00222342135784468,93502.78559048008,,,
2.27,-6.799333973706933e-05,-0.003165878578846291,79.54528827113685,-0.000679649191693948,0.0010427944476269783,-0.00013440471601288288,,,,
2.2800000000000002,-0.0025568320574231754,-0.0029578190793863902,79.04431808935254,0.0007918655676449299,-0.0016676367680761002,-0.0008226874838330257,93449.62656749556,,,
2.29,0.003062299186902837,0.004185378268383561,78.60051180459851,0.0014363327616918058,-0.0013596140092335875,0.001179641954440753,,,,
2.3000000000000003,-0.0008499436398623265,-0.003201601083743375,78.16588844097862,0.001522939055584589,-0.0007099885587452491,0.0007231482493339189,93394.7670909443,33.49861989560618,-99.33761926156335,676.7014615905044
2.31,0.0035431147988592682,-0.002144091135310764,77.67894275391328,-0.00042890863129714827,0.0005433318784506764,0.00042794287503497943,,,,
2.32,0.001817855726335544,0.004921710931470882,77.18541610905716,-0.001404650091536717,0.0015247931522646902,-0.0005654199979543583,93342.18192954268,,,
2.33,-0.00044004822675501723,0.0024081242801473257,76.55873230688682,-0.0012157987503441012,0.0010908060061140931,-0.0023427572531145315,,,,
2.34,0.000894432797420111,-0.0038840876005969563,75.91489766923209,-0.0007960530865139448,0.0003943430648345819,-0.0003644919059131483,93287.60520428451,,,
2.35,-8.223204212789246e-05,-0.001414955848244264,75.27976657447245,-0.0003192664629988874,-0.0004214526213330871,-0.00023749822971151933,,,,
2.36,0.00454540706855944,-0.008001025391256977,74.6473761673793,0.0017837812467962498,0.0006799125072578849,-0.0015500496159686736,93232.07781445245,,,
2.37,0.00035961834420965635,0.002263856977981329,75.76749326336989,-0.00041914734950836493,-0.002019742010741881,0.00019498165956961154,,,,
2.38,0.005776343104257185,0.0023663745383939905,77.03490429729399,-0.0006811005726426974,-0.0021546031866198894,-0.0010357396194807418,93177.01300628722,,,
2.39,0.0014488674697981944,-0.0018617621327085884,76.93993131806492,-0.00023772105909926843,-0.0016919098381067259,0.00032492241956205334,,,,
2.4,0.0005136931025435535,-0.0012394022301598139,76.7305212939449,-0.00036972268865173715,-0.0003649413753170715,-0.0008957466237824427,93122.08666494605,33.49865300266265,-99.33760074570333,716.6092138226578
2.41,-0.00033975695429399726,0.002048682352277732,73.03640135022071,0.0008765207047602248,-0.0008221674266268341,-0.0014108005505243824,,,,
2.42,0.0010251078740116867,0.0024993590497226588,69.04280796878325,-0.0015236116946481032,-3.884017218235353e-05,0.0006514455685081386,93064.47829846045,,,
2.43,-0.0030413562034962496,-0.003848843243055619,64.31347206461776,-0.0007026580621374873,-0.0005491668450886481,0.0004752600167267271,,,,
2.44,0.0024864852609995424,0.001926146612456605,59.516998400306015,0.0015676746823750263,0.000177941889449499,0.0005547469432877482,93008.53832354235,,,
2.45,-0.000992318103298917,-0.0029754175465646886,52.771658446078845,-0.0013805228984703627,-3.14371572005665e-10,0.0006641625217381013,,,,
2.46,-0.0026384233308714357,-0.007042440528457214,45.86477780288528,-0.0028454050031703204,0.0014370293930486592,0.0004992076833199659,92951.75768884379,,,
2.47,0.000505456335471401,0.0013657461588498408,40.40513670552947,-0.000544997950459943,-0.0008793554881434647,0.00012667617243895864,,,,
2.48,-0.0011827648495373046,-0.003937210438522702,35.08313685675423,0.0006311677720581881,0.0003246932052308569,-0.0018121932867925644,92895.59825025758,,,
2.49,0.000976427285360391,0.0006719610894087254,33.27329289706557,0.0010407495550821646,0.00038434546084134384,-0.00039128310631875445,,,,
2.5,0.0007930195395193229,-0.001687282881681873,31.75452704214669,0.0005460860006674905,0.0006634346992083123,0.0013363693473284243,92839.16917496438,33.49861411320208,-99.33761582539283,744.4319925960572
2.5100000000000002,-0.0014982110387128918,0.0019341518062114852,31.07947573967425,0.0007756663496088539,-0.0007521198887200163,-0.0016276414006187328,,,,
2.52,0.0022452437530115876,-2.4901496358512103e-05,30.493208911645368,0.0008333894657709979,0.0002999999654853022,-0.0008428595916122255,92781.42488619011,,,
2.5300000000000002,0.000126078903817054,0.0029936800804115362,30.07699028687141,0.0011216266532551448,0.0004608523992710427,-8.647220629555271e-05,,,,
2.54,0.0005211107795149762,-0.0017421558970341499,29.670531087737146,0.0017681213061220226,-0.00017822235834399672,-1.1432249211123319e-05,92723.00224951339,,,
2.5500000000000003,0.002991666988405536,-0.0019852845988728735,29.267940360967547,-0.0008853416472175095,-1.9783822880142248e-05,0.0015082713229848247,,,,
2.56,0.003090543327179604,-0.0006521781022524009,28.85892478274586,0.0003497707091201442,-0.00010528269739280338,0.0010224298527792765,92666.64740888693,,,
2.57,0.0008837970113953985,-0.0007132150111081353,28.58789182638294,0.00017114986461171623,0.0006773420394769771,0.0001309417377605551,,,,
2.58,-0.002840287032717012,-0.003427941299991935,28.333816063720207,0.0006547411740551765,0.00035817078984719426,0.00037842435535735393,92609.1252502268,,,
2.59,-0.0021369835491475064,-0.004755763586380157,27.960751698050018,-0.0001145042635796232,0.0010554352868166208,0.0013824805778330025,,,,
2.6,-0.002827868654664665,-0.0013302200824387236,27.575899670876055,-0.0008841057917929408,-0.0002612416069861507,0.0013506743657854374,92550.68894290576,33.4986508395393,-99.33759720079658,757.9081569500427
2.61,0.005637741675679716,-0.0024352943460161816,27.174943525135408,0.0002074006657587903,0.0010209893929585413,-0.0005005891549543159,,,,
2.62,-0.0012287072408724592,-0.002087148726915536,25.321683680153093,0.0006230434937247834,-0.0003059855559468001,0.0006684115354411391,92493.80940271636,,,
2.63,-0.0016272757886924977,-0.0012247191688934558,26.385911957039504,0.0006452705817315729,6.015878412659063e-05,-0.0016751998403645055,,,,
2.64,-0.00284694617898576,0.004982943556301895,26.004125521543227,-0.00026088646488018133,-0.0011981502989638995,-0.0026397848890329302,92434.29328354291,,,
2.65,0.004383938817935322,-0.0003245938122405112,25.62251884401817,-0.00031604379055197475,0.0018401569600919275,-0.0012325560625923015,,,,
2.66,0.005504160981565183,0.002524768773667387,25.246633920094308,7.082485022384551e-05,-0.0007627643899560912,0.0009831907053043294,92378.59566012044,,,
2.67,-0.0016300194239453239,-0.0008218993482419678,24.916163619839534,0.0005230124666949794,-0.00017379070105503293,0.00021748098588188208,,,,
2.68,-0.005135616981784122,-0.000543817147157217,24.593006244567327,-0.0029010817939242395,-0.0004987707385916453,-0.0014792298230593907,92320.32584004651,,,
2.69,0.0014230910122480097,-0.00015728079892611367,24.29783806776163,-0.0007547602309297637,0.00034732021295265424,-0.0006541526253656181,,,,
2.7,-0.002187893056811346,-0.0011087226296704815,23.994952650614255,0.00018341251282761125,0.0005796951426362973,0.0009169981769426452,92259.16417710815,33.49862110804458,-99.3376180429583,784.5140120926052
2.71,-0.0014015436836659718,-0.002229830145326784,23.703820411323452,-0.00015414215993844892,-8.781987875163906e-05,0.00013037074965099264,,,,
2.72,-0.0011840313186759607,0.0034452354276894885,23.412461879033422,0.0009230622570266751,-0.0005336814754002506,0.00176214443034097,92202.76778716032,,,
2.73,0.00435660019219255,-0.0023253586493661225,23.116287004940194,0.00021456690575696638,0.0004470695267228835,-0.001088877469250512,,,,
2.74,0.0004020868337624426,-0.0006956118058977249,22.818423136514564,0.0014794051735429379,0.0003282475491558524,-0.00044053502818975406,92144.19514206218,,,
2.75,-0.0009083461189944213,0.0007769084732986005,22.53929096215513,0.0013099729499285375,0.0002723200899994561,0.001922632294454897,,,,
2.7600000000000002,0.003970691549883104,0.0004690630683379123,22.247474347238914,-0.000538511530026268,0.00033996820844766067,-0.0012964433917132816,92085.15886929847,,,
2.77,0.002990051643312791,0.0047685295578246524,21.96276284396398,-0.0003026772620597002,-0.0008034164556754176,0.00016177463371426008,,,,
2.7800000000000002,0.0038505791386233704,0.0006577080006610329,21.67270305393345,0.00028487886189678476,0.0006422447909488105,0.0005903777675021296,92027.31583779505,,,
2.79,-0.0008565912973777065,0.0019851206676781254,21.411675855502047,0.000835320528928752,0.0012232344622857536,-0.0007991947269737539,,,,
2.8000000000000003,0.0010731293060054397,-0.0014222553803889208,21.15553228478496,-0.00022530054146856427,-0.0006845459478587764,0.00045682185216262247,91966.51781887775,33.49861619054323,-99.33763857487294,813.4509758184093
2.81,-2.5155478541558473e-06,0.0009357698356523015,20.913866006428496,0.002152347061951164,0.00011032823810608417,-5.584561444844241e-05,,,,
2.82,-0.00388981315858265,0.0014415813722136927,20.683792659134927,-0.0005323007831462906,0.0006711538978099822,0.00019998776926516315,91909.05823879532,,,
2.83,-0.002104961827518393,-0.0026734200806421,20.441952136120904,-0.0013283455641024979,-0.0005413305348915921,0.001954053396194566,,,,
2.84,-0.0018745454387224174,-0.0020163317541256848,20.198486181280906,0.0006707299621694856,-0.0007901317396521551,0.0003052509066829729,91849.80105606701,,,
2.85,-0.0035667145959806623,-0.0016591033617908708,19.999188248135518,-0.0001058429804594825,-0.00019261374757051296,-0.0021859953850104593,,,,
2.86,0.0014335082774515758,-0.003692461037064141,19.79615929660266,-0.00038308073963921527,0.0008283896228522111,0.0021364203554005037,91791.43101480899,,,
2.87,0.001572334135610696,-0.00044052502469421514,19.575564667391966,0.0007219385924800034,0.0008157805928427096,-2.598171768299593e-05,,,,
2.88,-0.006163467531462595,0.002898378944332593,19.361745178898,-0.002224887308826388,3.474576879852381e-05,-0.00118994253703689,91731.45017170854,,,
2.89,-0.0025490073152458622,0.0043945970250514966,19.102917180524848,0.0012911169790747671,0.0006313710602461468,0.0018370661234271722,,,,
2.9,-0.0006959506222851353,0.0005352470371069126,18.847254842546423,0.00023161702637937198,-0.00011013931166499107,0.00017210274274337455,91671.31532418008,33.498613866128345,-99.3375961736581,839.5470708962337
2.91,-0.0012748896685197686,-0.0032014383116498566,18.57782103291123,-0.0008801435372786698,0.0008359814081557982,0.00024511439427016176,,,,
2.92,-0.0002959722001724056,0.003687704188541328,18.32089572958635,-0.0022916967909351817,0.0018698577912646258,-0.0001755211280883006,91613.47277969072,,,
2.93,0.000441250559514371,-0.003763865939272199,18.02386228092568,0.00029992654821801526,-0.00019204623803803202,-0.001155868826419192,,,,
2.94,0.0013318855625680732,0.0030050240671126295,17.737994124171834,-0.0007985996561627576,-0.001693043442443771,9.391754804451247e-06,91551.87709207383,,,
2.95,-0.004432716108953994,0.0003387713746945579,17.419668760943146,0.0005587708798987674,0.0010607515555834156,0.0006657613417352016,,,,
2.96,-0.0013920070429042362,0.007433907865086549,17.10034243008796,-0.0005158834451992546,0.0007678916275153308,0.00110325584687781,91493.75680227483,,,
2.97,0.006966810470417575,-0.00020599619066530688,16.788258396708326,5.844984540880819e-06,0.0012104744816652236,-0.00032927019523080624,,,,
2.98,-0.003096363994060629,0.0009574044424016669,16.469197998809417,-0.0007011552298553524,0.002471054191571452,0.0001456117418526001,91432.77310641215,,,
2.99,-0.004454237580147263,0.00024607923292037294,16.13400034020558,0.000163707545058353,-0.002390357368299856,-0.0001897524489693588,,,,
3.0,0.0048353100316595845,0.003830038575168627,15.798832128909522,-0.0006545067309634433,-0.003367288313147774,-2.2172987408955012e-05,91373.69784530516,33.49864363215008,-99.3376221035944,866.446769932818
3.0100000000000002,2.3727327417000175e-06,-0.0009922719681154976,15.467053612427168,-0.0017968834623856716,-0.00011447823115058191,-0.0008246355575574335,,,,
3.02,-0.0019772300244356995,0.004007993515831016,15.140180651111024,-0.0008433706938515438,-0.0018690746295053637,0.0005395750289315,91314.35703474202,,,
3.0300000000000002,0.0010479687042195967,-0.0013775263911982296,14.816348945520176,-0.002059820352020666,-0.00026828743287531293,0.0008279723330251815,,,,
3.04,0.0034297083462299233,-0.0010275560282945152,14.492929500411094,0.0009294486540755717,-0.0014021490537197004,0.0008760710472878074,91252.92644006766,,,
3.0500000000000003,-0.002861666643481829,0.0031689413676614948,14.194876906722248,-0.00014101737712462662,-0.0001157411945562553,0.0002776795865178763,,,,
3.06,-0.0005118144734008461,-0.0022516284209668134,13.899619108692688,0.0002300507368696574,-0.0019546818374650346,-0.0014091962736205773,91194.68482538889,,,
3.0700000000000003,0.0005444440665288519,-0.0011432698921197322,13.6031825502858,-0.0003900647287015098,0.0007766065026936394,0.0003036671425405869,,,,
3.08,-0.0004168381454841924,0.010152247860062889,13.304103082240047,0.0002427550458326035,-0.00013134940769207374,0.0009239007576097877,91134.09160949457,,,
3.09,0.0033160438879113532,-0.0032174521225456993,13.008452937879309,0.00045650802430623243,0.00038790865439747063,-0.0007652559022878603,,,,
3.1,-0.00337694227593932,0.0022709948315704476,12.7173671809578,0.00020643347073580264,-0.0013832930779569363,-0.00010604365570875692,91074.73719972321,33.498653817621516,-99.33757900877605,889.2996293125701
3.11,0.0033685837338310568,-0.0034598096942536497,12.468408266574347,0.00013741538061750987,0.0010933541164527148,0.0013141018824388503,,,,
3.12,-0.00015510036214253891,-0.0010414482408244153,12.210854998611982,0.000684114077558003,0.00031720137283041636,0.000644938875439038,91014.24359057067,,,
3.13,0.005728965150260458,0.00226145692251297,12.010665085608426,0.00038164962272821125,3.7977475314182245e-05,-0.001542126645924008,,,,
3.14,-0.0034316632547568035,-0.0024318593721885853,11.806761889698574,0.001148798092423875,-0.001254765978429855,-0.0010232242464210614,90953.14027985596,,,
3.15,-0.00023258005978557588,0.00044562899024359475,11.61832879205708,-7.357452497582225e-05,-0.00040034627271490745,-0.0005401199293265505,,,,
3.16,0.002142062125111526,-3.0461775762070015e-05,11.435039562447347,0.00028227641537133057,-0.0007843124163810134,-0.00014340908480767151,90891.88375672365,,,
3.17,0.0027495294282374283,-0.004187043140994594,11.24472158444249,0.0017616012840720827,-4.2478016445946597e-05,-0.0005673393500830082,,,,
3.18,-3.914056673256772e-06,0.002163805929897091,11.056701814392156,-0.0010686992738554745,-0.0002899278545744366,0.0003736424379248349,90831.09270223827,,,
3.19,-0.0008070799722287438,-0.004297304397280998,10.841842422755459,0.00011380346681339543,0.00017062585560949727,-9.772384623659864e-05,,,,
3.2,-0.001998136594262287,-4.973901946432838e-07,10.613472651119162,0.0010240567681709556,0.0010427693126063328,-0.0016739230856336353,90771.44391189844,33.498626654440606,-99.3375894064692,924.7918498516921
3.21,0.001703036941902696,-0.0025640596082185073,10.336478984969817,-0.00015162330473022636,-0.0003980358810151112,-0.0004716517713292383,,,,
3.22,-0.0009835638962177589,-0.0007807722000003015,10.057301581933917,-0.0004760090586669065,0.0014803424218748113,0.0010178037785917784,90712.25029213034,,,
3.23,0.0048396886071575725,2.7499714433361387e-05,9.679774384522938,-1.2040405578416742e-05,0.0012754153190345679,0.0006043035470649867,,,,
3.24,0.0007989133254737088,0.001216057402652637,9.30544576191167,0.00021414319059309973,-0.0006228630648300007,-0.0015704238930587067,90651.71990123509,,,
3.25,-0.0006794224114608843,-0.00033672776607031107,8.798161020707614,0.0007095217122233075,-0.0005552212589653659,-0.0001627049628747447,,,,
3.2600000000000002,0.002035878625587196,0.002166902959644976,8.282032255620575,0.00024044414467500662,0.0016580219739292421,-0.000265044849993605,90590.77121607983,,,
3.27,0.0058025933187612865,-0.004487575042558893,7.736486818129395,0.00030100587422922853,-0.00011112997973394535,-0.0002865238998094902,,,,
3.2800000000000002,0.0038071758741829347,0.005363613062919523,7.195481299451671,-0.0006696558150104863,-0.0005181046033884455,0.0005692449941752572,90529.73587336806,,,
3.29,0.001738742144869803,0.000531651887208404,6.600449944344749,-0.000357506584420782,-0.0022818457391922085,-0.0005998687082381682,,,,
3.3000000000000003,-0.0031083241687036326,-0.00042232695273917027,6.00681188893274,0.0002253314362200522,-0.00014146917314418464,-0.0004895280967515113,90470.07143828021,33.49860250085528,-99.33761019220515,945.0839948158387
3.31,-0.00012800711778364522,-0.0019738865708224364,5.385879460849637,0.00011758833429624008,0.0006864162889746745,0.00026469462767007086,,,,
3.3200000000000003,-0.001240162491195101,-0.0017241576917894214,4.7722275552700815,0.0002253947809260339,0.0008801784043024782,-0.00017379905201345318,90408.19352723136,,,
3.33,-0.0005350464845961081,0.003825045411543945,4.095701725555022,-8.939610854749638e-06,0.00042306145274258937,0.0006301453053593257,,,,
3.34,0.0020913718597243775,-0.00040353804792713345,3.4079485190255143,0.0001731903015329554,0.0020021671339847734,-0.0003228067179192388,90349.4900069031,,,
3.35,-0.0023835972426762323,0.003111979884793145,2.512425673774,5.2683003717117106e-05,0.0017479345158626723,0.0008902647992055506,,,,
3.36,0.002297614136280334,0.0008311344287455719,1.593335073387958,-0.001811256646705626,-0.0004247680946378869,0.0013197394135336762,90288.4762287401,,,
3.37,-0.005807845362671316,-0.008536836704077738,0.4451566626910069,-0.0014265414252195166,0.00034251425478928346,0.00022373211412637331,,,,
3.38,0.00030340481605484746,0.002295424123702204,-0.72544810321705,0.0005939511212357059,-0.001290348213449295,0.00048124167297107777,90227.60532837363,,,
3.39,0.005536272384462104,-0.00037542551093168827,-2.1173485418344966,-0.0016668858873219099,0.00021854938957588,0.0004567333886221733,,,,
3.4,-0.003759773103086279,0.0032502075395723644,-3.528522593162761,0.0003102261669521522,-0.00026887536340676097,-0.0009899343772283083,90165.2863142247,33.498646701386626,-99.33763262935854,970.6540926228979
3.41,9.844684056402188e-05,0.0020807652270963873,-5.043137263007245,-0.0003163202539929387,-0.0028280354697208577,0.0006159622276726973,,,,
3.42,-0.00026275924236682046,-0.001871510196089285,-6.568149939228601,-0.0005164718973987864,0.0009449736830104129,0.0007654670350111752,90106.2760614902,,,
3.43,-0.0031221796778977745,-0.004655499246844298,-8.020859656965577,0.00037653885659929144,-0.0006187119710023699,-4.074481880000225e-05,,,,
3.44,-0.0012779709427933835,-0.001263154845891097,-9.461842325677964,0.0002462096882377981,0.0005160150155976191,-0.0003628766001653516,90043.9849091519,,,
3.45,-0.0008590674357112037,0.00021197021284844456,-10.766808910287976,-0.0007281441583833643,-0.0006512690119547264,-0.0005598309105588704,,,,
3.46,0.004584410724827535,-0.0003741788298856375,-12.051417532849868,0.0002801427040931483,-0.0003639630890461987,-0.0009218111407885129,89984.04004937004,,,
3.47,-0.0021176217715086934,-0.003584883762246587,-13.167183098268382,0.0008910753249523286,0.0005470176601233622,-0.00015877825228408746,,,,
3.48,-0.0036549157650097863,-0.0037944122583398908,-14.267573223586078,0.0011057080244297746,0.0005153838071987074,-0.0011150890583254147,89923.61216396873,,,
3.49,0.0008078430744083857,-0.0006323438075809028,-15.22885133650083,-0.0012416995744523832,0.001688194629659857,0.0012517677679595505,,,,
3.5,0.005364056633111164,0.0038612666078510697,-16.167586263453128,0.0010309440699227176,0.00048607075393118887,0.0004691618179795222,89862.73227230084,33.49866149442324,-99.33765958288288,988.6410124437156
3.5100000000000002,0.0018221950042505708,0.0015057016116402212,-17.047796085185,-0.0005035467801727045,0.0010357450781405544,4.441560201890366e-05,,,,
3.52,0.0006680519387739516,0.00315638761735298,-17.91556839724581,-0.00020384092312960103,-0.0003214329847866387,-0.001681566452343256,89803.54971167224,,,
3.5300000000000002,0.00294273777435023,-0.0029638962776249596,-18.759106147526996,-0.0009537219749749771,-0.0004916781954605589,-0.0005141904548857171,,,,
3.54,-0.005243934975456955,0.003837150444284837,-19.602546100930194,0.0013352170082524522,0.0008078550671046566,0.0009603613865566773,89740.36259371327,,,
3.5500000000000003,-0.00037036810458747734,-0.0042248426008414915,-20.375875577198826,0.0012434485826184093,0.00012962219588830273,0.0006322170000438457,,,,
3.56,0.000879702574385705,-0.0022223772232771266,-21.13288415869975,0.001446921490402392,8.629569136498552e-05,0.0013505831042094822,89682.61224141606,,,
3.5700000000000003,0.0007763107540619051,-0.0022853862414972306,-21.90087431878501,-1.06508361470093e-05,0.0004131168979702157,-0.00028379888743102166,,,,
3.58,0.00346016904600063,0.0010340741400340096,-22.669416964951708,0.00018673581820850192,0.0017422784708357125,-0.00018489962887512852,89619.90397383177,,,
3.59,0.00227447958632244,0.0032420839467044976,-23.15707336851186,-0.0002004991775452596,-0.0006812867284872555,9.834979805172902e-06,,,,
3.6,-0.0016340887853251343,0.004614591390907384,-23.616607170173594,0.0015343980350014193,-7.871044204562578e-05,0.0017200111344032576,89561.23975781923,33.49861851481108,-99.33758582045732,1032.2470423666434
3.61,-0.00014142027835374873,0.002392813968424341,-24.084395778371185,0.0009208051594765468,-0.0010124346846677476,-0.00019996350093218017,,,,
3.62,0.0031965053541893242,0.0006023174374995343,-24.548323908877734,0.0010389978560846787,-0.0013623595306522373,-0.0015709141845926982,89501.76576544458,,,
3.63,-0.0009614323946881083,0.00013134962012331254,-25.192395484020118,-0.0011113050773316944,-0.0003477338329092072,0.0012839121894039163,,,,
3.64,-0.004033475370000469,-0.0038417488647434902,-25.859845455561516,-0.0016222660570273315,-0.0004958024745431194,-0.0001543302860716604,89442.71270309854,,,
3.65,0.0024738169024549075,-0.0053472234844385595,-26.488266791782014,-0.0009308430245648207,0.00023558682714798718,0.0006357390216976592,,,,
3.66,-0.002932048420745331,-0.004296220561363777,-27.10973504723399,-0.0011471038213388405,-0.0005970870763345555,-0.0012041587693146774,89382.39416415973,,,
3.67,-0.0023101160239739457,0.00013571191215096398,-27.967200781426936,-6.289427040043086e-05,0.0018798453193108538,0.00045925476049723694,,,,
3.68,-0.0014049768457515583,-0.001509230700252502,-28.83850400264545,-0.0023687566100559403,-0.0002985210837938693,-0.0016839297657367889,89323.39050350506,,,
3.69,-0.002254133914821781,0.0022084618986730684,-29.627988755288676,0.0009196819369419743,0.0006162855329723752,0.0005895225910777108,,,,
3.7,-0.0022665553294484893,-0.0016823137571636603,-30.40425476404077,-0.0006556776459886505,0.00023662763781977372,-7.892850670406692e-05,89263.80936067898,33.498628831982884,-99.33762794991475,1054.6748911060465
3.71,0.0029994285009586046,0.0056261171638441335,-30.89979996058989,3.239354147051181e-05,-0.001010887411494183,-0.00027999018152559434,,,,
3.72,-0.0019848545459674096,-0.00018981813369327042,-31.383802508935027,0.0007830240002197811,0.0009743692841779303,0.0015952584239901425,89202.80738222983,,,
3.73,-0.0009794745434972994,-0.0011594548189241183,-31.786869792142966,-0.000737504436528318,0.001131548920572794,-0.0006513843847708915,,,,
3.74,0.0006206555430053555,0.0018958452766655624,-32.17892096383013,0.0007958819618317901,0.00010799177598068207,-0.0008777029344502416,89144.30822792141,,,
3.75,-0.0004320479497817393,0.0030458160365480435,-32.49841678168521,0.0005216946768148434,-0.0011181750278761902,0.00042348547392442285,,,,
3.7600000000000002,-0.0003616529803741631,0.004193167866606792,-32.81135647196828,0.0008257665384362488,0.0004105957512008941,0.0006938760212460022,89085.27977602773,,,
3.77,-0.005664370848173458,-0.00013473600021228854,-33.06127563061882,-0.0001850404180909078,-0.0006198533536680483,0.0007823596907133282,,,,
3.7800000000000002,0.005398385765760178,0.005536204031966417,-33.30914031819925,0.0014698890692952868,-0.0008947791782823993,-0.002595006981704692,89026.81140771932,,,
3.79,0.002745155852990551,-0.0016411146045553664,-33.5035269740932,-0.0004460970974409727,-0.0024055958010747833,0.0008499915264608258,,,,
3.8000000000000003,-0.004382620791986999,-0.001840069721794879,-33.70185181852315,-3.0257526046682477e-05,-0.00030525745628770713,0.0015928121830439883,88967.14999970293,33.498632127992316,-99.33761895720319,1076.239308294792
3.81,-0.002261071963958303,0.002531531480880848,-33.820500964128684,-0.0009277831926621582,-2.836032323570313e-05,0.0010899877467145914,,,,
3.8200000000000003,-0.001212502302344632,-0.0028634731375525332,-33.93864233565007,0.0011647115052376836,-0.0006223552428918713,-7.863318076648588e-06,88908.36546300643,,,
3.83,-0.0031909718667407477,-0.0014662331709505475,-34.00288535077946,-0.000575357437281125,5.657173871248381e-05,0.0008017303192286219,,,,
3.84,0.000782819115412957,-0.004982955339298797,-34.07059330138878,-0.00017161372890642088,-0.0009952779222336054,-0.00044096250829036085,88850.01839634596,,,
3.85,-0.00010897107536221274,0.0026001473312373645,-34.10291132183105,0.0003071416032010114,0.00013502010505250269,-0.0015289226822175176,,,,
3.86,0.0028841005063904223,-7.621170403625016e-05,-34.13718229473116,-0.0004400916878686676,0.0003353810168690697,-0.0010709010548990226,88791.40924007822,,,
3.87,-0.004265782585291486,-0.00417585332502564,-34.186993804242576,0.001468045045239566,-0.00021525655310298855,0.0025171371628830708,,,,
3.88,0.0002679627249995703,0.006155380030560625,-34.22563630362829,0.0021545906615011174,-0.00030079651402495453,4.872248166829569e-05,88733.73971715153,,,
3.89,-0.000900908207555339,0.00602050195386249,-34.28094862411608,-4.900499281973356e-05,-0.0019999558361990678,-0.0003178479943865963,,,,
3.9,0.0015377391334947805,0.0024319699440454577,-34.33606001904128,0.000492223967803583,0.002177498474532454,-0.0007884432408802936,88673.43955269591,33.49862775403662,-99.33766931257973,1110.8479654192686
3.91,-0.0006734757362694469,-0.000713373512482903,-34.6643019303354,6.148591688413848e-05,-0.0015819775472688785,0.0004917940230108179,,,,
3.92,-0.0018446843633108236,-0.0026810298458636367,-34.63126745141917,-0.0007007948688878157,-0.0017751804104933404,-0.0008518949700037429,88616.95100853132,,,
3.93,0.002648794403750326,0.0013932746818394416,-34.586118150365465,-0.0008252931317204313,-0.0005149004078328095,0.00015352749987232868,,,,
3.94,-0.0025586656417157082,-0.00038020749836391066,-34.55617323194993,0.0012112452963780195,-0.0005103714326647417,0.0008332240415180766,88560.48675509285,,,
3.95,0.0019492646951291897,-0.004205192154592828,-34.51512703966464,-0.0007810446198699211,0.00045659856568117216,-0.0015865102863108487,,,,
3.96,0.0008108803794837876,0.001124800076535208,-34.478081991542055,-0.0007131918667149195,-0.000401515398924723,6.592076733511852e-05,88500.34354212356,,,
3.97,-0.0012674633454914394,-0.006362183975428922,-34.444865077236194,-0.0008691221127653019,-0.0018595433591678664,-0.00024611048060832024,,,,
3.98,-0.003729777440723524,0.003102161095701617,-34.39929989095974,-0.00020431586900241454,0.0004462925428912684,1.987006862962957e-05,88444.89389165085,,,
3.99,0.0025489316518950357,-0.003062197974484921,-34.372900943622064,0.000647377752441327,-0.0011110379085468294,-0.00024355584882573085,,,,
4.0,-0.0037628230444592416,-0.00017538447604425585,-34.32998300878882,-0.001003546270804963,0.0011625109222362711,-0.0007808018735767948,88386.51734687694,33.498639740542586,-99.33753159570917,1132.2496937107996
4.01,0.0020338236508278193,0.001999672907080537,-34.293039852136694,-6.385600666386264e-07,-0.0008081847545650355,0.0010776558473663692,,,,
4.0200000000000005,-0.003290400631759313,-0.004305764426761293,-34.26301163465204,0.000367983087798647,6.581331773669881e-05,-0.0014481998837391013,88327.91037158036,,,
4.03,0.00021714757131451778,-0.001756149162723789,-34.225044970025124,0.0005339434865627912,0.001152718318129348,0.0007753088730914117,,,,
4.04,0.0035968607581148295,-0.003374320227045241,-34.18862032795954,0.0013292339204870286,5.7611859824020544e-05,-0.00021947345234714973,88270.40491010009,,,
4.05,0.003423771329832653,-0.0061546116186227615,-34.14755791054649,-0.0006859094892737762,-0.00044462686847593407,-0.0012141953856892168,,,,
4.0600000000000005,0.005590204258854434,-0.00031171568800855996,-34.11283647456944,-0.0011901577041542515,0.00037469876864713744,-0.0009426922717067837,88214.71732408671,,,
4.07,0.00020240803668933563,-0.0007676087189668968,-34.06836553124551,-0.0015458025987236156,-0.0008667891505460398,0.00014597455348453646,,,,
4.08,0.007084052293502395,0.003094509491169593,-34.0405903269994,-0.0004138910742810843,-0.0006895387764571962,-0.0005744903015285962,88159.07116164034,,,
4.09,0.001298329614954278,0.002935285474747491,-34.00327360192958,0.0026915953924975776,-0.0003233772734343054,0.0006848038217063123,,,,
4.1,0.0016171992387026286,0.0042203421965286946,-33.96694861797833,-0.002027143213353142,-0.0007152517125036798,0.0009004735007580229,88101.15121404084,33.49861478593958,-99.33755044466848,1165.8205522764156
4.11,0.0031923072958257278,0.0005306639171375733,-33.93047915355639,0.00010122610154280784,-0.001057551869462234,0.0011838834374118283,,,,
4.12,0.00010087235424013194,0.00040882446170404177,-33.895945529831295,-0.0010928464488114964,-0.0017691183867698148,-0.001853547013997081,88043.13212563063,,,
4.13,-0.0006452658458651706,-0.0020444253526391604,-33.85889704553392,-0.000958861353606183,-0.0008138732941508402,0.0004253910210626878,,,,
4.14,0.002792474195840374,-0.0012442247968982155,-33.82557162414316,0.0013866644377553375,0.0009470084094701573,-0.000616660481077638,87988.96507969813,,,
4.15,-0.0023934429452846335,0.003110480351908334,-33.78641032348757,-0.0011079904315793756,-4.9883062237093195e-05,-0.00010927356140929439,,,,
4.16,-0.00041862410787983244,0.0004325479235777494,-33.74507312992634,-0.0016803053153855243,-0.0005643123654436254,0.0011637602406822608,87931.41596964745,,,
4.17,0.004097341736587677,-0.0009828466374463064,-33.708037812023775,-0.00026315243791003414,0.0022235667692253624,0.0004729129641154351,,,,
4.18,-0.000653383491977221,-0.0029622591451573125,-33.680109690897815,-0.00015918036074077252,0.000984045999837278,0.0017705704091782943,87875.98524490281,,,
4.19,0.0029411723471477655,0.0012021933776103562,-33.65642588690806,-0.0011015380532516169,-0.000835644899837335,-0.0013113333798087641,,,,
4.2,7.037847995743717e-05,7.918207148866583e-05,-33.610026635001006,-0.0013133770506113182,-0.0010277595184093368,0.00011647386236914978,87819.90880737516,33.49862393590761,-99.33761512959761,1189.6521920724315
4.21,0.003570137934021926,0.001275822900856743,-33.58156213004195,0.00042356755710875585,0.001236662775029821,0.0013966987355140282,,,,
4.22,0.003372828651972285,-0.0012532673531009072,-33.54085539583492,4.391658500938561e-05,0.0011173589843058848,-2.553775656105066e-05,87763.38248359467,,,
4.23,-0.0003569220659567268,0.0005271470065513294,-33.50757512944016,7.977898199759889e-05,-0.001413036313771236,-7.31094474443729e-05,,,,
4.24,0.007404691466331557,-0.0002009525330339956,-33.47305509159763,0.0017064589584774071,-0.0017661734061577472,-0.00010278265475997803,87706.95037280976,,,
4.25,0.0004787500901456833,-0.004414857134530611,-33.43274636550518,0.0002586490363953991,-0.0011779644754053042,-0.0008144531894449575,,,,
4.26,0.005225744553387842,-0.003108210110975533,-33.402435743773445,-0.0006136889917819474,-0.0019165009969940566,0.001995592369126893,87651.98136509537,,,
4.2700000000000005,0.004019067716058812,-0.0007517558806707969,-33.368840769385315,-0.0001388629038228531,-0.00037356626520446357,6.926467399034842e-05,,,,
4.28,-0.0001264136300686018,0.0037699713084625966,-33.33168730498834,-0.0008200837627769544,-0.0007451054167737983,0.0006025344565231206,87596.68644778183,,,
4.29,0.000477376199308627,-0.00021835687971136726,-33.300114339136286,-0.0006819620132048997,0.0005266618457306237,0.00026174402079224646,,,,
4.3,0.0016251489857810148,-0.002744476393408761,-33.26647380754705,-0.0014825674233725163,-0.0003819405328803158,-0.00011515798329604301,87540.353865277,33.49864346643472,-99.3376283891509,1213.039560886264
4.3100000000000005,-0.0018394770667108963,-0.005014881780136114,-33.23135670697995,0.0013520963257079128,-0.0008421106139815314,-5.764031843853172e-05,,,,
4.32,0.003921465920417512,-0.004859073596917651,-33.20235269979935,0.000838345541795733,-0.00039337740413029643,-0.0010401838961051522,87485.10102207324,,,
4.33,-0.0004913065525915846,-0.0007922686581397828,-33.164411296745165,-0.0006319037010172984,0.0013555531118254066,-9.423877585989795e-05,,,,
4.34,0.004846184675882009,0.0041291889108563025,-33.13265498474605,-0.0023960348670456935,-0.0005234180405006906,-0.001492646355961226,87430.59565650235,,,
4.3500000000000005,5.488564312484337e-05,0.0003941851763961747,-33.09640188949673,0.001509684222920065,-4.992627492530321e-06,0.0009271619871143613,,,,
4.36,0.0012736810801942458,-0.00012074275979922585,-33.06375145460639,-0.0014202583721764862,0.0010828565643376503,-0.0008636032346580252,87375.94914779271,,,
4.37,0.0024158197639841477,-0.0008531851416989794,-33.03117137683285,-5.118504311531771e-05,-0.0008628007473469956,-0.000739440901617396,,,,
4.38,1.5252099333955834e-05,0.0004814756237981382,-32.99730706445342,0.0003872828749805079,-0.002179242661789918,0.0018945711860708899,87320.05510623837,,,
4.39,-0.002842036954864099,0.001884784805012453,-32.96313673822184,0.00015802145072065323,-0.0007074861153477244,-0.0024280347699245463,,,,
4.4,-0.00042770771686093036,0.004599836702709944,-32.92816325841917,7.438369905114273e-05,-0.001135845188707052,-0.0019937838301985126,87265.51143883044,33.498627416483274,-99.3376028133529,1241.5274251819283
4.41,-0.0006821646444932404,0.0017805852502843229,-32.89724448007245,-0.0009755846872467461,0.000727638716472907,-0.0015931984962324543,,,,
4.42,-0.0034050623094053728,-0.002041638068890557,-32.86473739300689,-0.00018055924782721928,0.0004017533394079407,-0.0006495883501457664,87210.86419495699,,,
4.43,0.003174842335455563,-0.0035125674801760277,-32.82564453615798,0.00023882174578356146,-0.00032115213654456743,-6.364673771580551e-05,,,,
4.44,-0.0013394028339790123,0.001848633241231843,-32.798050056785044,0.0004223908631145694,-0.0020838352797843784,-0.0001035394587807198,87155.54939293265,,,
4.45,-0.0013766251722933775,-0.0010637952663542693,-32.76268553615367,-0.0016929083585885947,0.0005764914270278867,0.0001334032518052075,,,,
4.46,9.355669905567044e-05,0.001183907264526168,-32.739181267429565,-0.0004060448376677849,-0.0005455625418385828,0.0005386969343923035,87101.5806593213,,,
4.47,-0.0012707145527969981,-0.001785572010127313,-32.70149000833102,0.0007407469446131422,-0.00047417777159988945,-0.00043217967447381435,,,,
4.48,0.002956745422036406,0.0037855911881750875,-32.67315568894658,0.001093894123273097,0.0010929590760219076,-0.001448752889031201,87048.33731993954,,,
4.49,-0.003219232827907143,0.00167308428349423,-32.64621843114008,0.00028660454959229424,0.001365353774048336,0.0014255619252878183,,,,
4.5,0.0058910699185052914,0.0022778880729774644,-32.62198478981691,0.000156313579983928,0.0009126756924299735,0.00040565394151049675,86991.72772772156,33.4986317753327,-99.3375689599076,1273.0323448014947
4.51,-0.004756846940770665,6.820865663544649e-05,-32.596703664132924,-0.0005801279272774166,-0.0016988659738541001,0.0002653501182735647,,,,
4.5200000000000005,0.0014278624813266426,-0.004038454294898798,-32.56761977957836,-0.0014676068437816923,0.0013544007509641337,0.00047897845075738874,86939.73603233507,,,
4.53,-0.003366426121465065,0.006328313399926285,-32.53722158206058,0.0021180287734522585,-0.0007671666710861228,0.001288219310510589,,,,
4.54,0.003532370290555574,0.0023383760484190753,-32.50315883935103,0.000754523830498848,0.0008430441027674605,0.0007525973330037394,86884.93175295579,,,
4.55,-0.0015762178661188116,-0.0022416929409185904,-32.46764172273892,-0.0006947303006951201,0.0007221693734655848,0.0005810226647925741,,,,
4.5600000000000005,0.0006722042526919784,-0.0028544459462590595,-32.43940564587026,-0.000716824264757173,0.00018185185460083364,0.001808307516301874,86831.89569279022,,,
4.57,0.001999909078305053,-0.0034181025571432774,-32.40379571545111,0.00186780579686741,0.0012437515372852584,0.0006576546899830713,,,,
4.58,0.0045347852617532766,-0.004510359268246706,-32.37848673862064,-0.0020665475806756935,0.0012934021582146553,0.0014061434449952443,86778.92062543033,,,
4.59,0.004405792909234466,0.0004656023394250735,-32.349975251624485,0.0006703191149651085,-0.0004679408524625957,-0.0007138324439352414,,,,
4.6000000000000005,-0.0009284848553815134,0.00415040433088155,-32.318757551548146,-0.0004343464966545261,-0.0024016695450444414,-0.00024276737568352006,86724.12300786441,33.498633244218716,-99.3375820851754,1289.7051399043369
4.61,-0.0017095635122826892,-0.002546102904925369,-32.28164613165553,0.0007958897588328709,5.9882688957590475e-05,-0.0007717297160985142,,,,
4.62,0.00014041332213934651,-0.00030708446946325115,-32.25385533746323,0.000516956232738462,0.0008109031529779427,-0.0004182112264615964,86673.0747422469,,,
4.63,-0.0011047818279185549,-0.0033872287809428034,-32.22091251519061,0.0013639593606444068,0.0009593870857710305,0.003002648736102274,,,,
4.64,-0.002814681379326225,0.00023227187442199197,-32.19400194740473,-0.0005507811467298703,-0.0003598472726827227,0.001367659715602453,86619.45133369247,,,
4.65,0.006049273649638864,-0.0017116160508196345,-32.16199276923942,-0.00011925521434505398,0.0009628429257837327,0.000175756265336988,,,,
4.66,-0.005044400989310999,-0.004446726384936564,-32.132309476089645,-0.00022790297387866306,-0.0006776534427068983,0.0008174040968097854,86565.82927752711,,,
4.67,0.0014780774645920018,0.00492037532531612,-32.09487624088393,-0.0009228052236204467,-0.00024551401759374353,0.00018926111305136957,,,,
4.68,-0.0017495459170902771,-0.0005315806686390232,-32.0658445409,-4.206363979226855e-05,0.001331528774788243,0.0005635637102055865,86510.89412001696,,,
4.69,0.00046794763976324685,0.0003526447498126486,-32.043586666008366,0.0002559707198513312,0.00016480716521914614,0.00025676922677591235,,,,
4.7,0.0008842647538114501,0.0022407296630244764,-32.02292135858812,0.0014395625448194098,0.0007961400712203298,-0.0014920415805715053,86458.569219466,33.49863856448201,-99.33764807394545,1322.43428618301
4.71,5.098365988453993e-05,0.003272409481045583,-31.994194465047812,0.0006474269828110228,-0.0011930468257590821,-0.0009042628131603484,,,,
4.72,0.0017722783785732933,-0.0012796971387432057,-31.974197521385435,-0.0017406943496957104,-0.0011544526905166855,0.0006426276828505576,86405.80235984968,,,
4.73,0.0029860966529629217,-0.004666357923658418,-31.943101011373972,0.0010756447387441977,0.0012785989991236108,0.0023017987214993137,,,,
4.74,-0.002452489287501,0.002925031113387162,-31.911556766522256,-4.717698793606854e-05,-0.0016356419804716069,-0.0003618465003962992,86353.96096254943,,,
4.75,0.0034657848814316577,0.0032403059092023564,-31.880571389036472,0.0004385976946549721,0.0005798127541541935,0.0007270004799048412,,,,
4.76,-0.0021526333875136663,0.0003268760003068107,-31.849182543392914,-0.003087718242195537,0.0009151319671468781,-0.0008871159558616627,86301.6540304192,,,
4.7700000000000005,-0.011017366025216207,-0.002417637200251126,-31.8137797421984,-0.0007101966716523649,-0.00026427940450617196,0.001183034357956101,,,,
4.78,0.001689360223195873,0.0008314140645689369,-31.78805132065148,-0.0005304193945372549,-0.0010665932649483246,-0.0013045365514934423,86248.50397423038,,,
4.79,-0.00047577149694930917,-0.0004535662717572858,-31.760547834113304,0.0015782700440946803,-0.0010567663549823703,3.2241713420618004e-05,,,,
4.8,-0.00478698486644989,-0.0020188414883182243,-31.73098251946595,-0.001381947084764376,-0.000624764327784861,-0.0011096463932904206,86195.39576577321,33.498671878892914,-99.33767385477307,1342.9872964280887
4.8100000000000005,0.0016114311093117274,-0.0010979672616692486,-31.713409756228295,-6.127551046249764e-05,0.001892218599039327,-0.0003591403493923703,,,,
4.82,0.0019887462060447347,0.0018082038890044339,-31.673600876205985,7.253320601958323e-05,0.0016540235322588818,0.0022941625223672135,86144.52830360507,,,
4.83,-0.005769823733364486,0.00045802604588413053,-31.651444921518642,0.0005158452541641365,-0.00056815324757488,0.0016479165064690862,,,,
4.84,-0.001556783215081888,0.00045728008731019533,-31.618378854633917,0.0017238757544896445,0.0008993900162454921,0.0006253109163689661,86092.50051884275,,,
4.8500000000000005,0.0003405735011124904,0.003776965919614926,-31.588198528681662,-0.0007449098502352514,-0.0009866837142138323,0.0002365770877729673,,,,
4.86,0.001900947676482049,-0.004559451192384456,-31.556888665746072,0.0007284412005528373,-0.0013697485688006828,0.0013172119615448366,86039.65801917171,,,
4.87,0.002434331170899431,0.0017229646707169698,-31.531405182927262,-0.000390542506122492,6.408626597799733e-05,0.00012951562656325868,,,,
4.88,-0.0021390185117792747,-0.0008871957817532069,-31.49955484075504,-0.0007635751934477708,0.0012676427796685541,-0.0003614001952221047,85989.41425300154,,,
4.89,0.00501907798461837,0.004248282459834702,-31.470932058012973,0.0009783947167523023,-0.0004531609225446886,0.00260715498960411,,,,
4.9,-0.0018078175237439674,-0.000591279821241209,-31.45590917251059,0.00036223899275497103,-0.0005374167586153577,-0.0006313367886351752,85936.39822177071,33.498659927632474,-99.3376369689656,1369.3906049950572
4.91,-0.0007236932493828612,-0.0019364246502473071,-31.424398875162126,0.0009369380794481553,0.0010536372643171863,-0.0002417216808962046,,,,
4.92,-0.004773625664031988,3.102771122647901e-05,-31.40500975083598,-0.0006289178915744388,-0.0004323714261291751,0.0008764830346614433,85885.17091648234,,,
4.93,-0.0002458237830105814,-0.0037853493299349066,-31.37635668715583,0.00012784078614838765,-9.536015970271556e-06,0.0003560130253134192,,,,
4.94,0.0021341669110335137,0.002725963365615513,-31.353374366315872,-0.0010824361791497848,-7.689434595128353e-05,0.00079935212590847,85834.44971463518,,,
4.95,-0.000667339170831695,0.0006361055043134882,-31.325061794181448,0.0009049434320636243,-0.0021717812745266295,-0.0005432698046537743,,,,
4.96,0.00393452100898327,-0.0010678837160169687,-31.29403495151866,0.0003156051546402969,-0.0011606924313260674,8.732022744146751e-05,85782.07218635736,,,
4.97,-0.004927840578912632,0.0017121748519094478,-31.266204771659016,-0.001269911241255395,-6.589071143001038e-05,0.0003394869924446216,,,,
4.98,-0.0018665754723544811,-0.004171046364117816,-31.238285477217854,0.0008947685994187462,-0.0019110597069452364,-0.0011519426899100065,85732.47972063597,,,
4.99,0.003101739793888043,0.0018577783524266274,-31.214336464838368,-0.0007733857549233158,-0.0007741731365659796,-0.00010950749332594132,,,,
5.0,0.0005085369179540179,0.0037808387775968354,-31.179586518136908,0.001316897162047236,-0.0004075444107443238,0.0008279553004020526,85679.72953671667,33.49859175709935,-99.33755493191357,1398.2462465755
5.01,-0.00019861751638858158,0.0029802502343651174,-31.147859861610936,-0.0007261293036994891,-0.0008174485008883513,0.0009643730585738519,,,,
5.0200000000000005,0.0017209243496815083,-0.00021149887124403944,-31.117825292432123,0.0014216901313575587,0.0018317460819560736,-0.0025481640135650192,85628.96486316824,,,
5.03,-0.0011995740089453207,0.0007772900846919074,-31.097188120908495,0.0005538193950682844,0.0005350944520508039,0.0007621695303600837,,,,
5.04,-0.00129932441574668,-0.0010354180100279522,-31.07307893172374,0.002203952288898822,-0.0007217997155918801,-0.000457708421573094,85579.23958792789,,,
5.05,-0.005383659399008481,0.00011430126238893607,-31.045636927139576,-0.0002743699098354266,0.0008035150400853734,0.0011093109135985719,,,,
5.0600000000000005,-0.002455818491998092,-0.0019285059152003912,-31.030391341341545,0.0005525553762139935,-0.0011795917278667012,-5.7794784612251434e-05,85527.25845664703,,,
5.07,-0.0008862879323495042,0.004478552286486193,-31.00935797119844,-0.0014115726803081402,-0.00025876786010062004,-0.001259898420727187,,,,
5.08,0.002286664785725554,0.0003481016786997581,-30.98306185562171,-0.0005752392425451573,0.0004322082154146326,-0.0007475934540207056,85476.61313183549,,,
5.09,0.004825166960528265,-0.008308273803638803,-30.95597266556596,-0.00043038885533911423,-0.0016796939743810326,0.00022842521251040238,,,,
5.1000000000000005,0.00034988625033047075,-0.0029553452457841112,-30.920566287100428,0.000688220660247588,0.0011330287040818763,-0.0003147264885290057,85426.20818780568,33.498606409245326,-99.3375692543161,1406.7760989050087
5.11,-0.005311234137868952,0.0008455118019156942,-30.899166456988354,0.00040286171830243876,-0.0004976960347934533,-0.00037431934434017087,,,,
5.12,-0.002607180258828039,-0.0002880570677165552,-30.87223933859357,-0.0005620976788401896,0.0018624042465575498,-0.000560681951725718,85376.49304814695,,,
5.13,-0.0024553262307035334,0.002229745696470292,-30.844224743864768,-0.0014678823111351597,0.0013528880093883963,0.0008072062378523127,,,,
5.14,-0.0013566961254967906,0.00020830128886543394,-30.823425644612588,0.0003306141870611657,-0.000491873720858908,0.002064439597787762,85324.8523813078,,,
5.15,0.002814826607304885,0.0015894385647710152,-30.7863059114406,5.0690666871298204e-05,-0.001548113736147195,0.0003389274946738874,,,,
5.16,-0.0027917306522794567,0.003491479795426058,-30.764873302002155,0.0013838924659220603,-0.0008772543721170114,-0.0016970616882063252,85275.78887100732,,,
5.17,0.0014480287042973503,-0.0032555877825834957,-30.740160264671516,0.0005174800364400673,0.0005078699260753237,0.0002508867697400037,,,,
5.18,0.003568050799922857,-0.0025831502702382677,-30.71653450536704,-0.0005997627493403921,-0.0022509929097679357,-0.0005178213571818761,85224.50976996447,,,
5.19,0.00560303967577377,-0.0035008476484341996,-30.686750074833125,0.00034808698348816797,0.0008736616371726252,0.0007173112036040155,,,,
5.2,0.0008510166577953245,-0.004571430609477619,-30.66403956548876,0.0010441650788998232,0.0013127042564163918,1.5536824789031592e-07,85175.64964395025,33.49858712577392,-99.33762659584734,1436.7423347101492
5.21,0.005427542940480124,-0.0012956851594385832,-30.640553700902593,-0.002263086929906505,-0.00042373014288006865,1.9329779427605195e-05,,,,
5.22,-0.004053227362567897,0.0024882155769305114,-30.62613933024223,-0.0011698062616287716,7.609980336542845e-05,-0.0014506118112949723,85125.32438564958,,,
5.23,0.0011134138793587685,-0.002984012044497536,-30.60291108187807,0.0001008894053047725,0.0005703992811813172,0.00025229611737617724,,,,
5.24,-0.005565397098044564,-0.00561363330628258,-30.57609279855086,-0.00020848316245498553,-0.0022905333540238944,0.0002445598833239873,85075.43156665603,,,
5.25,0.005101744773078078,0.0021275146635048284,-30.549231462423734,-3.789737315281679e-05,-0.0009560171717104785,-0.0008842508201272797,,,,
5.26,-0.0039567585928872995,0.0011876136283444762,-30.524972648444802,-0.0002686470158463447,-0.0006622671159840294,-5.929247731889205e-05,85025.22123112097,,,
5.2700000000000005,-0.006380626577361782,-0.0013067599375310615,-30.499905375898486,0.0009921090878098205,0.0018594465017126908,0.0014827251807874417,,,,
5.28,0.002131681431288829,0.004052255402157321,-30.471562023549254,-0.00010266308996463331,-0.00025825035959313865,0.0004682344102472939,84975.84238697833,,,
5.29,-0.0015683690767508487,0.001139529368235694,-30.445539706566308,-0.00036813780534303866,0.0009162269238013319,0.0010333888993453422,,,,
5.3,-0.0034877208006821757,-0.0017783826529772582,-30.423460873271242,0.00012031846862178738,-0.0017155351912156646,0.000341117193798712,84927.02318593443,33.49861857671285,-99.33759447791222,1465.001173891341
5.3100000000000005,-0.0020413102619952716,0.0024602953227568216,-30.38921353656541,-0.000554259580713675,0.0017894749390057355,0.00016911709690953488,,,,
5.32,-0.002511054308598386,-0.006494351527986047,-30.367535048890655,-0.0005312717466165447,-0.000448113395806383,-0.0019325419071595656,84876.31005436789,,,
5.33,0.0018024418996984402,0.0015648891304813378,-30.34182946230976,0.0003448700892309516,0.0009337476985391324,0.0018048171165082367,,,,
5.34,0.001123920690659263,-0.0018340238726424892,-30.318826998066587,0.0018509829889436344,0.00016206432876142622,-0.0006136205669086645,84829.09449159462,,,
5.3500000000000005,-0.004117587130473283,0.007070772332451647,-30.297953924432214,-0.0015191894672209254,0.0006061920391547066,0.0015728283477707966,,,,
5.36,6.324436971251911e-05,0.0070856795669848064,-30.275715771198843,0.0019466432846327812,0.00035451035047639215,0.00010899810886145182,84778.82755150167,,,
5.37,0.0004370317052414734,-0.0002321285776467102,-30.2543798152863,0.0008855030084329192,-0.0008662643280538855,3.2675442176701925e-05,,,,
5.38,0.0038560402214414544,0.0023014302002741906,-30.236236705366302,-7.226261028070041e-05,0.0010503245849740614,0.002887793041090186,84730.46481507241,,,
5.39,-0.000678059521612555,-0.0002531285926328858,-30.20902529064489,0.0019338320037641066,0.0002479840433051225,-0.0014766388491747704,,,,
5.4,0.0017139803193128172,-0.001966588247389264,-30.18927626721743,-0.0005241136462697342,-0.0007000759015302224,-0.0005261645471659546,84681.93885885272,33.49865603637799,-99.33758289181911,1484.3646649632913
5.41,0.0040457361742522735,0.001595254407984547,-30.16264823187183,0.0020980531103730565,-0.0017744572264971376,0.00025628689110500976,,,,
5.42,0.0009037113128837254,0.0034275398735023766,-30.133460675205466,-0.0013113995314251539,0.0008284114311751106,-0.0003477511813015753,84632.297256725,,,
5.43,-0.0023579026074494807,0.0014690703124020485,-30.110712901501252,-0.0014196810183664463,0.000812695476025189,-0.0013657396476126505,,,,
5.44,0.0020274446173445255,-0.003363047984235085,-30.083851561799232,0.0006358275086988783,0.0006841930028676261,0.0004277257646504763,84583.31175004473,,,
5.45,-0.004012196160034484,-0.0013764574257635954,-30.0637807667985,0.00048094352163030504,-0.0007784438847492931,0.0011826172409953098,,,,
5.46,-0.002653388916137255,0.00038548321726624384,-30.030831975270956,0.0009593940905095211,-4.3283925330317695e-06,-0.001384569783836373,84535.56483037634,,,
5.47,-0.004836936337643202,-0.0006252244123011665,-30.013552763673754,-0.001242522006238981,-0.0003582560720470641,-3.2802063663965784e-05,,,,
5.48,0.0008527809226758414,-0.001490013016465565,-29.987665900938868,7.179366958592635e-05,0.0008961671059531109,-0.0011387136225738247,84487.74891966184,,,
5.49,0.0013550727310338824,0.0018765347529081117,-29.95977615609846,-0.00021664902862247922,0.001985474709444223,0.0014441683776251644,,,,
5.5,0.0035993084133040427,-0.0006987362585575314,-29.940059790871054,0.0008313027783912496,0.00010449959460423861,-0.0007978483106241886,84439.15623823916,33.498635545867145,-99.33766237824443,1514.0111270910263
5.51,-0.0031622192999162827,0.0027854754943355746,-29.91935783250198,7.80066852124848e-05,-0.00047514644643844233,-0.0005152439378166905,,,,
5.5200000000000005,7.482271191298905e-05,0.0033199713149736714,-29.897435929518423,-7.940676221563964e-05,0.0008920232729880775,-0.00197889266203066,84391.44352497807,,,
5.53,0.0027977870847286056,0.001085391695429562,-29.872444885518302,-1.4022357178192575e-05,-0.00011620684429934636,0.0006404398650793437,,,,
5.54,0.0019467696994346381,0.0036766515225263433,-29.851992910948304,-0.0005019620090905136,-0.0002465370897033158,-0.0006895573662102174,84341.68727030228,,,
5.55,0.0029769750958165684,-0.004293741002136638,-29.82740699257381,0.0003849641812361617,0.0011699983350830921,0.00012861445796435986,,,,
5.5600000000000005,-0.0026681962326714024,-0.0036947171742668554,-29.803728720430136,3.145432927831614e-06,-0.00018045941544359877,0.0009283148290769972,84295.22813536404,,,
5.57,-0.0011569408959272122,-0.004160408183287224,-29.77693258937193,-0.00010544006725642095,-0.00012180756662139608,-7.476292656122171e-06,,,,
5.58,-0.0047448567983691065,-0.004121226326156896,-29.75721081344226,-0.0015057686072044428,-0.000549393006779326,-0.000981252440991476,84246.2326462273,,,
5.59,0.0013381570692171168,-0.0020128615787230893,-29.73369558636986,9.293592133372369e-05,0.0002085495626852876,0.00017345906716465984,,,,
5.6000000000000005,0.0011535479988891743,-0.00013664261903407188,-29.71781452223579,-0.001646161477183995,0.0005252458472252636,-0.0005326569550863761,84197.99629150768,33.49859559961527,-99.33760162186088,1539.003512282438
5.61,-0.0003868508401887972,0.003337002041780645,-29.699377392685278,0.0006300510328644987,-0.0009918952953202637,-0.000852837721792365,,,,
5.62,0.00025110555604901917,-0.0006631423146534296,-29.67601330240492,0.0007669919757116315,-0.0001561714469036366,-0.0001003340749238015,84151.51689818657,,,
5.63,-0.0003010254980956807,-0.0016986557866217103,-29.657737177063993,-0.0011610025874720232,-0.0004370569374597585,-0.0010177266412266155,,,,
5.64,-0.0023655550806542685,0.0002182040811876704,-29.63378368086747,0.0003283585768813405,0.0006420217126862028,0.0007244068888009529,84102.44726930869,,,
5.65,-0.0018901772816614468,-0.0014638731286405837,-29.607767411907172,0.0009258151329000269,-0.0006858955821951649,0.0005570569105493492,,,,
5.66,-0.0010911936960359165,-6.987715431461699e-05,-29.58331575599247,-0.001710251529756366,0.0007808749591648838,0.000334776731689802,84056.67357247714,,,
5.67,-0.0022780517042692142,-0.00015631694484025536,-29.555242447556566,9.6446879921361e-05,-0.0006510829628395199,0.0007934612360483634,,,,
5.68,-0.0022799394857602687,0.0046410916455249945,-29.53612809662756,0.000569221797897661,0.0016575498677428506,-0.0001656758627422886,84008.18945718899,,,
5.69,-0.0031120644484656343,-0.0002763453722846847,-29.508949337263623,-0.0009338621333608381,0.0005142465492722028,0.0012071376085739016,,,,
5.7,-0.00513014382818039,0.0032425659417071886,-29.49544719197174,0.0009956446031563091,0.002191650952800741,-0.0006021598416312428,83961.19978139193,33.498566071954684,-99.33759483280963,1555.8867493241382
5.71,-0.000924658069231029,0.00748731059853561,-29.466211679689312,-0.0001661207066300364,-0.0002755109143636578,0.0008138748066389528,,,,
5.72,5.260155526024581e-05,-0.00010845572842355065,-29.446579900102098,-0.0011754404710355376,0.0007440528699015119,-0.0005917290093397805,83913.10310259837,,,
5.73,0.0009235976088437713,-0.0029926609297560545,-29.417010404769943,-0.0005327752664636501,-0.0006986237451546577,0.0007758111307858074,,,,
5.74,-0.0014716513991056648,-0.0011545001633243002,-29.401639313042903,-0.0024461295129709058,0.0005417313034916233,0.0011034302945634395,83864.61742388643,,,
5.75,0.0023846628203374,0.0015133961941111108,-29.379666785037887,0.0006563428695076356,0.001889996361881141,-0.0005019939119476035,,,,
5.76,-0.003584314748946589,0.001749225094493287,-29.358808026098668,0.00024485702951909335,0.0007805524077019925,-0.0010452828452487798,83819.06925548376,,,
5.7700000000000005,-0.0008638485398037029,-0.003666958940483651,-29.346695610923177,-0.0014946427129251601,-0.0010604275658557271,0.001028910038947132,,,,
5.78,-0.0010493088564331565,0.0014093084142089215,-29.319420379438363,0.00011197804213486213,0.001373079466806303,-0.00014015969994559942,83772.48266372697,,,
5.79,-5.2702695328436645e-05,0.006101466532822678,-29.302519145480215,0.0008711374636668713,0.0001580127600706276,0.00036330084200503,,,,
5.8,-0.0006546867877664752,0.00014122661595175208,-29.281070776459746,0.0012519736437394155,7.460425104705774e-05,0.0008028306522362431,83725.78228647955,33.498626062462804,-99.3375960047426,1583.1366543227057
5.8100000000000005,0.0027869004853531758,3.957915840063873e-05,-29.259027627738572,0.0008841793894773245,-0.0017573960053070604,-0.0011951747156668394,,,,
5.82,0.003418309150222814,0.0008474286573579751,-29.235945555510863,0.0006254859235015546,-0.0011220426607744384,-0.0002732581203775176,83679.51743828543,,,
5.83,0.007954056946749447,0.0033777820704696177,-29.213880937136324,-0.0007411280599403915,-0.0025616686981419167,-0.0020795195737835755,,,,
5.84,-0.0028883478413092977,0.00047277669893189077,-29.18829920375572,-0.0016766749746972781,0.002356444906930767,-0.0014993142476884562,83632.22485749821,,,
5.8500000000000005,-0.0009237524325125722,0.0012303955068252161,-29.169386458255975,-0.001764406506386423,7.54959329370799e-08,0.0004973374303104688,,,,
5.86,-0.0016655127831451458,-0.0001120454672999002,-29.15160724110219,-0.0024665192680814107,0.0005783617904194002,0.0013729098685804021,83586.08558675477,,,
5.87,-0.0012523589902978004,-0.0036239345261853254,-29.13408862799082,-0.0009544379579128325,0.0009091645183555232,-4.863868353672292e-06,,,,
5.88,-0.0007063836432312816,0.0050756888768921735,-29.110559290264558,0.0001534130187371202,0.0005079028605110205,-0.0007266741271959667,83539.82692298223,,,
5.89,0.0025211866929541215,-0.004762064906374422,-29.0930218315691,-2.8486911438030244e-05,0.0014862837733175813,7.35417223132591e-05,,,,
5.9,-0.0006395402462722077,0.0034927723344234476,-29.07456793889582,0.001315611399189984,-0.0003026758474322764,0.0001775030970931932,83493.1263997785,33.498628350617196,-99.337591637109,1599.620070130124
5.91,0.0012645278843889242,-0.0044327030138290755,-29.047941391999338,0.00017822657488646536,-8.024854081560979e-05,-5.806957131638061e-06,,,,
5.92,-0.0003030402841911849,0.002922465326960084,-29.028903017256344,0.00017396705359770768,-0.001302243603762142,0.00044852531293886196,83446.79126821036,,,
5.93,0.0008259881215540073,0.003257633897713611,-28.999324021054647,-0.00036334793189054187,0.0012161653811817294,-0.0013248831925133384,,,,
5.94,0.0024406750022812154,0.006217833549079294,-28.982660441215234,0.0003837968375372643,-0.001382113617028964,0.00031621532310099876,83400.51995242218,,,
5.95,-0.0028968295124886874,0.0034421148196925383,-28.9575078948951,8.673160411180554e-05,-5.566090238483409e-05,0.00040044207367640367,,,,
5.96,-0.0024956147048633666,0.00041500233005924576,-28.943189959398666,0.0009903603364106875,-0.0009833210588053335,-0.0006025533272582059,83354.42172683893,,,
5.97,-0.0027029138925385135,-0.00013560840587324152,-28.925955894807387,0.0013759177489041578,0.0006038165498944804,-0.0008572042553645011,,,,
5.98,0.003131793281679777,-0.00020837785478559093,-28.90927121058643,-1.3547305372959927e-05,-0.0008522372507888111,0.0004261776334606417,83308.53114954713,,,
5.99,0.003712253665961111,-0.0021217230589112997,-28.89565651831429,0.0005265979378677599,-0.0009364078442934737,-0.0008871164885649877,,,,
6.0,0.0014198423180743994,-0.00411845432984928,-28.8667064458824,0.0009786086478061524,0.0010751941154142923,-0.0004987782199346506,83261.78887976414,33.498617821034784,-99.33764047721915,1625.6293621337356
6.01,-0.0009101810219450745,0.0011036707721645879,-28.845598939895368,-0.000917395065319367,-0.00022367257437638725,-0.00048482367219764775,,,,
6.0200000000000005,-0.0016951566439174332,0.001639044203766128,-28.82555787159536,0.00018972453059476783,0.00025836594408790126,0.0011427550648367005,83218.09472166357,,,
6.03,-0.0019708238986396176,-0.00393102721869943,-28.80708708225323,-0.00028239641853292964,-0.00014158336161751407,0.0009413177613361073,,,,
6.04,-0.0043248670362697325,-0.0008316423280014481,-28.784944220478504,-0.0014713067259747518,-0.0008355637034032824,0.00011949341436038249,83172.49025713002,,,
6.05,-0.0024026694970267336,0.0003389010456797907,-28.768691074863906,0.00021564070330245847,0.00013923354656717623,-0.0005029791402009785,,,,
6.0600000000000005,-0.0032062423036191352,0.0009858710824716288,-28.749114274147985,0.0003984115764400755,-0.0021258096288692217,0.0008378577296452391,83126.37878663125,,,
6.07,-0.0017236455881697742,-0.000695158402493363,-28.733650008465137,-0.001363470783790967,-0.001528750580570253,-0.003411688651973891,,,,
6.08,-0.0013739376387199118,-0.0010115073106201093,-28.712985570815945,0.00022500447281344164,0.0006875898392728902,-0.0013112734410014465,83083.03086097955,,,
6.09,-0.0014021187839915346,-0.00024333955299705393,-28.697519417233952,-3.521196652212184e-05,-0.0001302257408610119,-0.0003264136891109257,,,,
6.1000000000000005,-0.0022345711164032675,0.003086282688327993,-28.671263293406234,-0.0016074606712503149,0.000432666541727708,-3.4249043469405704e-05,83035.09192271257,33.498628734159475,-99.33760052598981,1644.4218500419759
6.11,0.0023065623808109273,0.00028205465930082786,-28.65363530312519,-0.0017368100812968571,0.0008345101866364543,-0.0010930319787577495,,,,
6.12,0.0004043073260942154,-0.0007170097458071323,-28.634565915271256,-0.00041056657263626584,-0.0008383631766881529,0.0005111513116914222,82989.26801009201,,,
6.13,-0.0018083698116487144,-0.006131030155873796,-28.6132899737359,-0.0013421344491398519,0.00020035187618473952,-0.0006339192135248295,,,,
6.140000000000001,-0.003730707205352097,-0.004214825182677187,-28.589343760965008,0.00034107081753163545,0.0016986291922753097,-3.2728124323152924e-05,82944.8293075486,,,
6.15,0.000815007935241932,0.0002707851243157929,-28.566264098434974,0.0010458999265925842,0.0005682535178907712,0.00012825958689228676,,,,
6.16,0.0008176502725587686,0.0017131067752873858,-28.553426595514946,-0.0008350482219980556,0.0009374547145400858,-0.0021237635589982638,82899.24154976674,,,
6.17,-0.0014174043662638451,-0.00075120870794066,-28.531060420982623,-0.0011655480444483061,-0.0004144189379679002,0.0009628996080783941,,,,
6.18,3.262706249374214e-05,-0.0013957966931574467,-28.51522727860724,0.0014539727884450664,-0.0004488271230298966,0.0002666199119591486,82855.06231820743,,,
6.19,0.0019893930847135898,-0.0005037579497512137,-28.498024671995008,0.0008873125439644476,0.0008755894289912214,0.0014376407460646738,,,,
6.2,-0.003814847697719677,-0.0011862774958019994,-28.47351096866031,-0.0011067247909585744,4.261934927807181e-05,0.0018739277789673596,82809.66431398282,33.498640388087246,-99.33761510499629,1663.0462324752712
6.21,-0.004157939663420996,-0.004516405511553104,-28.45355095060516,0.0014357281555935559,-0.00047097427539558875,-0.0007523471029024077,,,,
6.22,0.0010940499313575691,0.0012278292986081247,-28.43609408071311,0.0007291347515298211,0.0016529841220109724,0.00035630918417254843,82765.41218021691,,,
6.23,-0.002435560708064478,0.004345490493572368,-28.419985345792437,-0.00044756062358522236,-0.00220989742224734,5.777815170814105e-05,,,,
6.24,0.0007201214960044799,-0.0009869293920693148,-28.395013994820992,-0.00032474424738467223,0.000574879592392012,0.0014576015257163955,82720.54489259409,,,
6.25,-0.000812740582394351,-0.0010945000649072306,-28.388099755652522,0.0004697200054638252,0.0009805905884631347,0.0011133312322707636,,,,
6.26,0.0020528054743204653,-0.004912693943667852,-28.36345727474215,-0.00014202482321694313,-0.0005567244821075215,-0.000694281812233519,82675.61236613135,,,
6.2700000000000005,0.005188316343395492,0.0022616027942250713,-28.350579516788407,-0.0005898665720512885,-0.00045009712936026463,-0.0008395180853372794,,,,
6.28,0.002671526427518276,0.0037047223281052185,-28.325605846946203,-0.0004833616951144991,3.064419027195835e-05,0.0004486709964009339,82631.9143036324,,,
6.29,-0.0026257556864539423,-0.0006071111525301918,-28.315195286320087,-0.0003463962170880317,0.0020569155732274125,-0.0004535542464078756,,,,
6.3,-0.002063927446956558,-9.289239118100708e-05,-28.299134131451485,0.0023556745736369915,-0.00037129004092975224,-0.0005694604343992593,82587.4628916569,33.49859459805904,-99.33764538010544,1686.5871337861042
6.3100000000000005,-0.0014375527851484833,0.0068679678074672875,-28.281109675921506,-0.0008346255977380587,0.0008502736315558429,-0.0009512809727971535,,,,
6.32,0.004882228081267803,0.00535958945573259,-28.253128498004546,0.0016395357465631688,-0.00020585397884443165,-0.0005690100408953054,82542.91299640022,,,
6.33,1.753912697456335e-05,-0.00020438860663354256,-28.229033745555743,-0.0014684739493298648,0.0006324769710961166,9.95309170566565e-05,,,,
6.34,-0.0019776322771269256,-0.0011393962435440697,-28.211595180514564,-0.0014805224640286204,-0.00017486321979190558,0.00026772209815292456,82498.7521948216,,,
6.3500000000000005,0.00015817761579971337,-0.0028522603241512433,-28.18898081752876,0.00011019499139835712,0.0009834790720767439,0.0013950889800742419,,,,
6.36,-0.0012490080913537226,0.0010883375426826017,-28.17206272941271,-0.0012826689728749024,-0.0008430275363775142,0.0005645715191675769,82455.48194388994,,,
6.37,0.0012809479269101098,0.0031948737932377394,-28.15650636541387,-0.0013095630963117263,0.0014432334795272054,0.0004543243227323216,,,,
6.38,-0.0015586413523068976,-0.0019499626575211102,-28.14116953818181,0.000131324324839879,-0.002039065071505074,0.00026835679147601545,82410.3736111286,,,
6.390000000000001,-0.001919810317720644,0.0019762194763212966,-28.12776427899735,-0.0006925483995102393,7.147835808557825e-05,-0.0007243233568575752,,,,
6.4,-0.0023715550219108278,-0.003004880153601368,-28.10596066786402,-0.000306573050159264,-0.000587427600239729,-0.0009095103214484694,82366.10621541955,33.49861436515164,-99.3376048375365,1712.1059230949236
6.41,-0.002840859901905709,-0.005130300031663518,-28.090175791563144,-0.002959927978810463,0.0007287627213242364,0.000541178807316085,,,,
6.42,0.0018457385709402408,0.00029924756813164263,-28.05963677023957,0.0007416754727816464,-0.0013772329442256113,0.0003937927648764132,82322.25667370949,,,
6.43,0.00010341901862481707,-0.000447231530698491,-28.04950701879861,5.502967750222406e-05,-4.167073066385459e-05,0.00026788406945767813,,,,
6.44,-0.0064742848496160185,0.0009033980471018177,-28.02741851302218,0.0011928925673763491,-0.0001296849904964592,-0.0005618641493762054,82278.46570295864,,,
6.45,0.0048274729619207386,-0.002026469016862357,-28.014024649043233,-0.0016318704139176969,0.0015321993585366187,0.0010950438723282005,,,,
6.46,-0.0020686392329388966,-0.0029120349543528654,-27.997136535255823,-0.0003149103612167451,0.0003775005445058093,0.0012752245357863304,82235.82207901229,,,
6.47,0.0024455811417624746,-0.006010940238360177,-27.980760211041662,0.00026343214023752534,-0.000910095330428572,0.00024780474139692705,,,,
6.48,-0.0008544826002279153,0.004376673755952098,-27.959469109139356,-4.3348692925847986e-05,-0.001386915843875588,-0.00016693846464221603,82191.11542991307,,,
6.49,0.0029546795910921986,-0.0008038938963164771,-27.945651674194373,0.0010074105668952107,0.00047005880678932163,0.0002646469550981896,,,,
6.5,0.0024949318310119708,-0.004062900201594912,-27.926903267890395,0.001672965824269132,0.0008282454120781827,-0.0003137535456825808,82147.57559599022,33.49860133152476,-99.33759406230374,1729.4182040697578
6.51,-0.00935407107596472,0.0015489995901541511,-27.90950856868941,-5.8015807377874124e-05,9.074774459429043e-05,-0.00034655282746349846,,,,
6.5200000000000005,-0.002802434708640474,0.0008432041249456635,-27.89273821932835,-0.0008395831547563554,-0.000271474426434194,0.00014887530869690132,82105.41789521599,,,
6.53,-0.003828590493731589,-0.0012081828373465401,-27.875874791073265,0.0007195396224072775,0.00011963732010721955,0.002955292965687655,,,,
6.54,-0.0002583144645508212,-0.0038361790960676884,-27.85143431876689,0.0012501280891934188,-0.0016433670669611454,0.0008228637358044783,82061.87484005469,,,
6.55,0.00021756792412244035,-0.0024645045516822226,-27.829152136263787,-0.0013869985240114384,-0.000883335492165068,0.0014685344558379347,,,,
6.5600000000000005,0.0014691709015957524,0.0009549585722080146,-27.809817815424896,-0.0005713288624359038,-0.0003721220065148208,-0.00016710991800724173,82017.64207070484,,,
6.57,0.0014327140408915756,-0.002713796042925579,-27.802624181676123,-4.393260000335738e-05,-0.0016999971612078654,-0.0013104193817384208,,,,
6.58,0.0052848606217969964,-0.0033633693625133606,-27.786867600693398,0.0003049146297774541,-0.0003674097573328821,-0.0011147298512347431,81974.46603646522,,,
6.59,0.001126306016261869,0.007373616177726317,-27.770291517846164,-0.0011334547646063278,-0.000559941862437357,0.0012247982456267711,,,,
6.6000000000000005,0.00018527810815830012,0.0011975680274291863,-27.75402179072839,0.0018660316629294503,0.00032463264442745746,-0.0005100924616719015,81931.35108985066,33.498664385204385,-99.33758834974806,1760.4471949640456
6.61,-0.001329251974131215,-0.007522360965014008,-27.73026810594556,0.0005116076679930307,0.001749535187628879,0.001080402049696787,,,,
6.62,-0.0015475410618634108,0.0014493493564595578,-27.71670570431791,-0.001760704214744836,0.00024530377466959273,-0.0006263863931303251,81889.31545707183,,,
6.63,-0.0006049014980236635,0.0037803699406696017,-27.693875065914124,-0.0006157070691945943,-0.0003967725218729458,-0.001261156955304638,,,,
6.640000000000001,0.002391121278566266,-0.001933283285466698,-27.67992827466273,-0.0006965883721077262,-0.00016018110006013034,0.0005785337706587845,81845.69076183255,,,
6.65,-0.0025844098047551074,-0.004475691137624846,-27.654825730377564,-0.00037776487120342336,0.001034264400788373,0.0014969405816215606,,,,
6.66,-0.0002781251852304722,0.0027842335912192104,-27.642184490234907,0.000688164210557697,-0.0002860454706206522,-0.0007081585692406788,81803.8776936208,,,
6.67,0.00519051950039244,0.0030531575680951654,-27.627390296479167,0.00046264195160725124,0.0005232920989268334,-0.001069385069232803,,,,
6.68,6.39802463050567e-05,0.002028845048610033,-27.61175304858326,-0.0005247017450063682,0.0024977360745542776,-0.0021646867055962514,81761.19685895418,,,
6.69,-0.003908960691802871,0.00591701684454316,-27.59379431525912,-0.0006558333586123405,0.000375395325611025,0.001343572117908093,,,,
6.7,0.00024784241264943325,-0.0014047653836960934,-27.58209052182797,0.00011196891578636602,0.0001815727824939167,-0.001576850107194092,81718.64475859083,33.498652251178065,-99.337651418483,1785.1271965405322
6.71,0.006060729346927167,0.0027159692203090717,-27.559460314537233,-0.00012256496959354415,0.000323803529292732,-0.0001787982155976922,,,,
6.72,-0.0037336055753981797,0.0018707281185773256,-27.544855171020934,0.0017838986385877828,0.0007695428130675891,0.0002824345064979778,81675.54369752742,,,
6.73,-0.002526957697605962,-0.0015121623632308183,-27.52443087431704,-4.460289543364414e-05,-5.5848300153534105e-05,-0.001820202259173084,,,,
6.74,-0.0035856098849800875,-0.00042113428441450007,-27.509012353688785,0.0002330137586821184,0.000776191589152832,0.00041648958634311726,81633.05037032344,,,
6.75,0.001625932452142934,-0.004117337374528376,-27.48230520069566,-0.0010944493402713152,-0.0002535826318586377,-0.0010435431154181406,,,,
6.76,-0.0014442635974132984,0.0019786117928019984,-27.473218304568782,-0.00010767660544432452,0.0016016560239194573,0.00020951964238075728,81592.40141250798,,,
6.7700000000000005,0.002122036065661345,0.0008391575418010267,-27.454941873690885,-0.001233328215059498,0.00018909165875918388,0.0008379441553079816,,,,
6.78,0.0018012775253028997,-0.004217439139626034,-27.444975848160112,-0.000761128543636234,0.001365859098842666,-0.0004269032098568723,81549.35280970113,,,
6.79,0.0007350385133796514,-0.002100550286956971,-27.421334721856496,0.0008688199663244381,-0.00045678648494189603,0.00030273310151951867,,,,
6.8,-0.000522024135858733,0.0005607245062099275,-27.403548373980755,-0.001573193805697273,-0.0018499363532725056,-5.3731393346407676e-05,81507.6164212861,33.498616785236926,-99.33761894563982,1796.9086093461838
6.8100000000000005,-0.00046161935215954325,0.0013678811393184889,-27.393980471561736,0.00016512436437378088,0.0003122211286832346,-0.0015073292920733635,,,,
6.82,-0.0033496504620781713,-0.004754871972657496,-27.371846057593352,-0.0008313652583146312,0.002535054468496466,0.0017967702526663863,81464.99118077075,,,
6.83,0.0017600401298047176,0.0008454971272628294,-27.359587891629875,-0.0009729129252005717,0.0010090413982169783,0.00032333553343533394,,,,
6.84,-0.0026342316107570494,-0.0003285489989699833,-27.34529676127916,0.002158272197112322,-0.0004996224440928895,0.0007782220616815627,81424.58493062019,,,
6.8500000000000005,0.0005889891046279833,0.005274834685538737,-27.322116827735602,-0.0009109058227823983,-0.00019673621431936242,0.0006283822429662629,,,,
6.86,0.0024779651075895084,-0.0002182359474481288,-27.30265690809106,-1.2240843076444052e-05,0.00135812754379032,0.0014340807856424304,81381.48270061654,,,
6.87,0.0032662385214435826,-0.004145220679413373,-27.291908996341526,-0.0010216843481974515,0.0014955865304629452,0.0006453096927246396,,,,
6.88,0.003309790969523463,0.0029346288192434963,-27.281672147351003,-0.001200338347560107,0.0012198233486439597,0.0005776134649600394,81338.99500912095,,,
6.890000000000001,0.000625032193498205,0.0004865595628371997,-27.25938261618545,0.00022512610702712723,-0.0015132600695309285,0.00038326550018205196,,,,
6.9,0.00493388657813432,0.003518796388674889,-27.248124673130985,0.0005964111894457643,0.0005515269906050522,0.0005414154311100275,81299.22898154483,33.49863966887701,-99.33761755250121,1816.3167658122854
6.91,-0.0035435221522172387,-0.004361362058628517,-27.238620205756224,0.001618149769477644,-0.0007821444802074529,-0.0005706947047130984,,,,
6.92,-0.0002688006956913485,0.002414258072679769,-27.22342812376283,0.0012698276760315097,0.0007555566145961989,-0.00038825546891702235,81256.34296741356,,,
6.93,-0.002209405854041773,-0.004331120781531023,-27.200763819082162,0.00012713525383735883,0.0018781574496548525,0.0007566540396636887,,,,
6.94,0.0006135851033879212,0.0028625006358858067,-27.194162769535836,0.0014874818090430365,-0.00038958122514479724,-0.0010974390929555209,81214.58447255849,,,
6.95,0.0001363751323020378,-0.004184860948437534,-27.1751919300144,-0.0004305199331791577,-0.000399012503243362,-0.0008458978163605332,,,,
6.96,0.0006820964025961992,-0.0010390308555947617,-27.155123203867902,-0.0013235888408903121,-0.00035316091820534714,0.0008495650520132537,81172.74938188985,,,
6.97,-0.0007393642137490783,-0.004144135752882239,-27.142226738129477,0.0005095616925922113,-0.0009736547648937616,-0.00015033005434378962,,,,
6.98,0.006586077818185259,-0.0025649460702040256,-27.12490362671631,-0.000737131372395638,0.0007227084461033163,0.0008990372708415689,81130.49297372568,,,
6.99,0.0006279131819056429,0.0030723232926650095,-27.10950518576704,-0.001583590145522004,0.0013162993830003924,0.0009779735807241723,,,,
7.0,0.003180290421510381,0.0013951462192416744,-27.08761270404947,-0.0009253238755523907,4.078954189104654e-05,0.0021646343031897814,81091.0209274613,33.49863099668818,-99.3376059938644,1839.5586724938662
7.01,0.0009934627051597612,-0.0017425994415230265,-27.07480333851607,-1.5297612046967845e-05,-0.00016352645192491992,-0.000452958270067614,,,,
7.0200000000000005,-0.0004907567152814067,-0.002784250059832299,-27.052583625356235,0.0003976974714118369,-0.0009938346932795085,-0.00013966880722314715,81048.0826303537,,,
7.03,0.0024957970691877026,0.0001731495214699893,-27.046206006702,0.0007680811941863699,-4.9675436259008724e-05,0.001050123866229082,,,,
7.04,0.0033714814210344048,0.0008435428277664839,-27.033079887509786,0.0006665581758842821,-0.0008402901882198703,-0.00025036178445203273,81008.09084256963,,,
7.05,-0.005485360392618838,0.006331221356255651,-27.015764186702675,-0.0015768708414866963,0.000360348174993525,0.0003217377280582523,,,,
7.0600000000000005,0.002467034696692885,-0.0025790326268355156,-26.997296616760384,-0.0003427611962541201,-0.0005824643958706055,-0.000508724087448231,80967.38952085737,,,
7.07,-0.0070052133030902,-0.0011806540484064518,-26.98595688682917,0.00039391990560574947,0.00019740221536553335,0.0005449642467529814,,,,
7.08,-0.00048699498145983656,-0.0020572444911882816,-26.963484673309598,0.00024266457442859743,-0.00032996875771279066,-0.0005917874011898677,80926.99943700725,,,
7.09,0.0007872614061114411,0.0030882212066038676,-26.948391658544576,-0.0007048516162324004,-0.00010892587692267932,0.0005810415937811158,,,,
7.1000000000000005,0.0016817634248627125,-0.0029854809743215965,-26.925257812736387,-0.00016470319677379134,-0.00018823399423411002,-0.0011651270339721133,80884.92253901783,33.49861791598108,-99.33760883209146,1867.639617646429
7.11,0.0030609572824878244,0.0010133461136623257,-26.911848347313807,-0.000839787441108348,0.0004979006696380033,0.0008679356557901934,,,,
7.12,0.004865095647666776,-0.005355460257943962,-26.90519279279354,0.001072622567268572,-0.0004702951142225067,-0.0014104533155444945,80845.00323128342,,,
7.13,0.0001546183319487469,0.0018709286196602706,-26.888988060652352,-0.00025405623681954906,-0.002369556804242557,-0.0002809615907068058,,,,
7.140000000000001,0.0009425640116327321,-0.0016134567610045438,-26.879123324612355,-0.0016699721271168017,-0.0032141994444281926,-0.000975129253085452,80803.84853479233,,,
7.15,-0.0007643863112266584,0.0006097249181209116,-26.859723199491892,0.0005085230984766959,-0.0006977803115101638,0.00011928756101570446,,,,
7.16,-0.0015466014354567697,0.0012077675526789627,-26.847502410753975,3.0698596522767526e-05,-0.0009234636672688012,-0.0004249546468151474,80763.4780821413,,,
7.17,-0.006248145638139936,-0.0002673382360126916,-26.82985866874393,-8.369912266251254e-05,-0.0008338193176491646,0.001322842965358745,,,,
7.18,-0.0018603376924452976,-0.0036300345142859006,-26.82186242886576,0.0006753084786245536,-0.0010750791557419869,0.0005424709076333335,80723.11242984589,,,
7.19,-0.0041846507882835355,0.0033475239310327962,-26.800226101025302,0.0003120469016526476,0.0005218973371160483,0.0003896782718163682,,,,
7.2,0.003146860587963817,0.0004940594913020246,-26.789544205090397,0.0003008877749107675,0.001376852174428372,0.0005336956810786304,80681.06306056122,33.49865317164131,-99.33766466400967,1880.7706354557713
7.21,-0.0003420306451295801,0.003609980723637259,-26.772300010615513,-0.00025352597922390953,2.2629587383133875e-05,0.00028984874944503266,,,,
7.22,0.0017638095034187382,-0.00018611663687957437,-26.75800826964983,0.00048330484651064245,-0.0006290905756390052,-0.0018294706411120729,80642.80088036187,,,
7.23,-0.0017983075655351722,-0.00041534795490727586,-26.73920606723064,0.0017469801848856072,0.0024124025388421694,-0.0001368071613960214,,,,
7.24,0.002938723527799898,0.0002260989743493584,-26.724478981807618,-0.00039784545825400486,0.000749634745398859,-0.00015550573823582708,80600.0925039781,,,
7.25,0.001975382012245959,0.0022182969721037072,-26.705727776402473,-0.0007749932063309649,0.0009877508458230677,-0.0007462179292278227,,,,
7.26,-0.0047768247789294165,0.0028267507045365123,-26.693677642641887,-0.0011425529550552578,-0.0007669051135046964,0.0013015345934384633,80561.16118113154,,,
7.2700000000000005,-0.0002449060178534801,-0.0016606635137275266,-26.682712320440906,4.3693996470560705e-05,-0.00038079233414002584,0.0014939827403318757,,,,
7.28,0.0018712053075043873,0.0028585102006077013,-26.664678439452878,9.591257312017592e-05,0.0007062366880357926,-0.0009817384260998009,80520.13734653789,,,
7.29,-0.0004638283921479465,-0.0013794867008666794,-26.649123709793198,-0.0011594941758978614,0.0008862425605451014,3.736254404108318e-05,,,,
7.3,-0.0009236233980518659,0.004152609743441349,-26.637161248932177,0.000723429103769008,0.0006032941184171216,0.0012582151862319316,80481.73695058931,33.498617598828076,-99.3376065218086,1897.650565162063
7.3100000000000005,-0.00042721753584736786,0.003168383608809231,-26.6277692357981,-0.0007009717576630816,0.0014264126936054597,-0.001119139654122525,,,,
7.32,-0.0008721851160398578,0.0001843642542414006,-26.610026822808322,0.00044276636672629737,0.00019393559164400755,-0.0018442567199580895,80442.04537739656,,,
7.33,-0.001903622298649941,-0.0032012957296548277,-26.59649148891604,-0.000594867423428696,-4.471799796417578e-05,-0.00299940834883254,,,,
7.34,-0.000739468902435213,0.003230769976921715,-26.57712633814156,3.469811872986351e-05,-0.00025000638701375144,0.001114053336236149,80400.65849799794,,,
7.3500000000000005,-0.0023831993316845057,0.002105603051435493,-26.560959285941454,0.0020853608424833445,-0.0006624064475330122,0.00017602359921900458,,,,
7.36,0.00012127660212359447,0.0025918349981312945,-26.542258130973046,-0.0008257445298407311,-0.0010641112312003997,0.0005680404288035206,80362.0566152966,,,
7.37,0.00027711921677679046,0.0014009436976199362,-26.530779269235882,0.0010795962851867812,0.0011056417957376005,-0.00012349739938412956,,,,
7.38,-0.0014951861374558866,-0.0029295661011075483,-26.51631787838238,-7.027065018624755e-05,0.0016126194500188419,0.0005019763946508918,80321.4164688551,,,
7.390000000000001,0.000733726047777915,0.002043332530745603,-26.503081807036867,0.0001714598008753756,-0.0018786287031835854,0.0013272168237798104,,,,
7.4,0.0009711420321925477,-0.004000710558763632,-26.490535114676216,-0.0014046104417464174,0.00035450609414329427,-0.0015801654947675122,80281.79281364707,33.49863012121934,-99.33764912046223,1917.0158161856143
7.41,0.0008737813168018182,-0.0014353210740638733,-26.480942475232638,-0.0008176754526296507,-0.0009719519029913301,0.0003156119581284081,,,,
7.42,-0.0016983509038218346,0.005704083736474632,-26.46471426858883,0.0017569354052009334,0.002267946130511101,-0.0011134177223800367,80242.91708142185,,,
7.43,0.0020168290970023687,-0.0015251033772008913,-26.452228620513495,-0.00032688797717474427,-0.00039312844910438706,-0.0006410671836734413,,,,
7.44,0.003983663809955308,0.0025144435665102535,-26.437530324448556,-0.0009028028846121089,0.0004906805042980075,0.0018817472451215904,80202.41548758298,,,
7.45,0.0027349373763914052,-0.004149312576081686,-26.426711912549425,0.0005322618555112698,0.0005976209799256045,-0.0018496924886249088,,,,
7.46,0.0013395419425091153,-0.008239624000956488,-26.412782806546648,0.0009856336049621564,-0.0010527075184106772,-0.0002449563650285011,80165.07243961973,,,
7.47,0.0014968855814653612,0.0017098892217186374,-26.39061066197289,0.0011019943013014105,0.0023030468096165275,-0.0025343246953164196,,,,
7.48,0.001043279183188542,0.0023700968831897847,-26.385862194841668,-0.0017675925847657483,0.0003247837335556183,0.0016826980189283,80123.12945597846,,,
7.49,0.0023653177788929315,-0.0038021623496019663,-26.369743916270842,-0.0011282494976425893,-0.0021145806362090707,0.0004389729171567028,,,,
7.5,9.932467304880663e-05,-0.006158882706576254,-26.351781701635684,2.8440844242963213e-05,-0.0012972168017787375,0.000556178237635633,80086.78950539963,33.498616997246586,-99.33764539753862,1943.7043457473826
7.51,-0.0006667416266138833,0.00023760271365861748,-26.336885377287665,-0.001130329610430055,0.0007624574625679105,-2.8552053411045084e-05,,,,
7.5200000000000005,-0.0008966090047129792,-0.0031992416435029612,-26.32203694843485,-0.001439128939634249,0.0006262987031982028,0.0005016366951705444,80048.51541178391,,,
7.53,-0.0027209637119588286,0.003819459614332984,-26.308733227148217,-0.0007147272264218151,-0.0008618105421940962,2.5489693667468364e-05,,,,
7.54,-2.1823167957278866e-06,-0.004513243299481394,-26.3038949719862,4.491852995443692e-05,6.13921911841835e-05,-0.00014782667795569185,80007.06869541702,,,
7.55,0.0029150746059462434,0.0026862973491486044,-26.285431268421505,-3.340825707561897e-05,0.0008657314628818519,0.001000339086128302,,,,
7.5600000000000005,0.000918893158570175,0.0012557639333291358,-26.272075634118544,0.0002217897564315535,-0.0014890415282172323,-0.00015068266821119644,79967.69593511586,,,
7.57,-0.002985753506621921,-0.0008472613555982781,-26.256060277460268,-5.45845282546959e-05,0.00023733615289037846,0.0010522609928395202,,,,
7.58,-0.0019396940817997786,-0.0009748312803133018,-26.234182059627138,0.0019270752762106757,0.0011487793748185145,0.0012510385779047105,79929.85741028396,,,
7.59,0.000346200204114833,0.003358604511819323,-26.2166323585311,0.00040716760403198524,0.0004979739803743432,0.0014661326052061467,,,,
7.6000000000000005,-0.0011318120605760444,0.0037424449644395726,-26.210871684281695,-0.00016792893418952977,-9.163599038079108e-05,-0.000795514609181044,79889.59123472568,33.498640241933444,-99.33763549231354,1962.258828963147
7.61,-0.00219484255965891,0.0006444200342772328,-26.201421475666535,0.0021046127704631,0.001317939575078728,-0.0003592612408530764,,,,
7.62,-0.0006004143648248572,-0.00659885200184637,-26.17971992524931,-0.0018345405653420856,-0.0005425340524582287,-0.0004602422903339623,79851.2254035332,,,
7.63,0.006343695426541242,-0.006497162301333419,-26.169994845455218,-0.0010920423720823947,0.0004090586804393093,-0.0007695630880807231,,,,
7.640000000000001,0.005018562288140822,0.004060497810168586,-26.156918270892596,0.0015000445900414574,-0.0009602975844643733,0.0007288238977256858,79814.55094735621,,,
7.65,0.0025755622211447856,-0.0077844077763917245,-26.140660557431513,0.0008998834324287477,0.0004704701149412905,0.0007794527122228354,,,,
7.66,0.0018898612996712976,0.004809129750893994,-26.13073995090824,0.0010744937740027405,-0.0005828560900945291,-0.00048179826631671014,79774.77524715553,,,
7.67,-0.0018116179858587674,-0.00034803157936923987,-26.12188778743555,-4.671555236493508e-05,-0.001183248505874065,0.0016455854318048588,,,,
7.68,-0.0012645921589769633,0.001989226669205811,-26.110401682788503,0.0019598415797315864,0.00029530153050723253,0.00023696795228010312,79736.57630273011,,,
7.69,0.0002800114627089257,-0.005652575013354821,-26.099226292286424,0.0009691225169279539,-0.0018842819352164512,0.0011791379932400798,,,,
7.7,0.002689066233730843,-0.002976563873019291,-26.0834976042844,-3.459035952496297e-05,0.0014875015042009542,0.0021360614095829495,79698.26317013089,33.49860545806392,-99.33767930321085,1977.9872827749386
