time_s,accelerometer_x,accelerometer_y,accelerometer_z,gyroscope_x,gyroscope_y,gyroscope_z,barometer_v1,gnss_x,gnss_y,gnss_z
0.0,-0.0033141911501012437,0.0031946941949054348,-9.776239126721526,0.0004145947560934589,-9.276178518437931e-05,0.0010795392816506585,96454.74879820959,33.49860153788467,-99.33764883773571,421.24759506457775
0.01,0.000736861344171486,0.0025947515650587925,16.57660580320574,0.0028448297699190835,-0.0011328685619780528,0.0011558069239686782,,,,
0.02,-0.004601035103128345,-0.0010437752039896182,30.074897897709537,0.0009180292094619695,0.00026100096730370757,0.00038261795438710475,96456.40752597435,,,
0.03,0.004283441186675463,-0.004132618238220891,43.5585989372787,-0.001719128454312148,0.0001594353185773977,0.0009856718826178285,,,,
0.04,0.0018585520112884837,0.000826574145368287,57.05106915892505,0.0019282180436282481,0.0005915019015521032,0.0001636256550445374,96454.1527938046,,,
0.05,0.0008131788550090391,-0.005024966696097287,68.57287703099738,0.0002520319524865429,0.0006954419518200933,0.000373620906751593,,,,
0.06,0.004902743486053243,0.0075436928867013,80.08410520498147,-2.8418437638090282e-05,0.001082658793047191,7.549879742066445e-05,96454.289040243,,,
0.07,0.0004423310001602243,-0.004784727028950979,83.5039541100087,-0.0006756308844905935,0.00034442206097293405,0.0015131104674844268,,,,
0.08,-0.003209243495544926,-0.0014413912962694384,86.85109153016514,-0.00045000035076872834,0.0010799277008560696,0.0004743037995276862,96452.65820540018,,,
0.09,0.005492008831843599,-0.004879495739404188,86.2825732735592,-0.0013640319096227618,-0.0005287421733532116,-0.0012573960371182317,,,,
0.1,-0.00021084158087937623,0.0001155694281145379,85.67390161715048,-0.0024626278598021247,0.00033731550277021726,0.0005910354614844332,96452.26923504753,33.49862054055299,-99.33761120586539,428.0894054154024
0.11,-0.0009869299590104248,-0.0015203213371952288,85.17936965346892,-0.0004184506034025394,-0.0007656729447257022,0.0008406796036969721,,,,
0.12,0.004354869515649781,0.0043439018600224,84.68330217044068,0.0006198794112882251,-0.0013618296950715244,-0.0013798330156041246,96449.3153215214,,,
0.13,-0.0025384566925427767,-0.0006121814065265344,84.41220958713268,0.0005730557147199818,0.001301163669818081,5.9135496438326213e-05,,,,
0.14,0.002750110157176261,-0.006323053905340393,84.13383446532815,0.000722347340594342,2.0150753458724867e-05,0.0011185365387577167,96446.83961975703,,,
0.15,-0.0004183020343828185,-1.3712402522104429e-05,84.13183455222477,0.00037598624450305146,0.0001481122793512227,0.0012245315479718652,,,,
0.16,-0.0031169101701495703,0.0018141251831910535,84.13636421361463,0.0014248038321610364,-0.0007726022538497347,-0.0011289314417939635,96445.10664241768,,,
0.17,0.0015161732431474735,0.0014238259561702939,84.25741475848176,0.0008141449857346141,0.000998256361815335,-4.71170645737544e-05,,,,
0.18,0.004908309594344826,-0.005294388015405475,84.38943087573035,1.10027438757665e-05,0.0016897603288426161,-0.0006586461560164213,96441.11994279441,,,
0.19,-0.0032339274814220495,-0.0005384870807956123,84.36614833454402,0.00032641294843152916,-0.0005858525946573802,0.0017597301612421142,,,,
0.2,-0.001334079464228967,0.005036629189949803,84.34712764168417,-0.00041165327943502004,0.00011835504992690666,-0.00038471233784322816,96437.9951073571,33.498654508597276,-99.33762293034785,421.0520893793438
0.21,0.0004989440584757943,0.0062939745716548865,84.37991894708597,0.0002304639628023585,-0.0008634876979858664,0.0016063659374300923,,,,
0.22,0.0018109754614556426,0.0003661522402438618,84.41327568580854,-0.0013184390306923235,-0.00020538880472628174,0.000531956223569049,96433.68047455538,,,
0.23,0.0027001576124226854,0.0022716171255609675,84.4542765244939,-0.0010480035800733572,-0.0005743826020985758,0.0006263481666972354,,,,
0.24,-0.0017869419924921091,0.002236355479510409,84.50688124414111,-0.0011761266266556364,0.00037732304189426843,-0.0010471365223035617,96429.34664585305,,,
0.25,-0.00970393834899154,0.0027205959901164234,84.54549899067761,-0.0006335027326179229,0.001045294338451167,0.000602341233037901,,,,
0.26,0.0017316576051803723,0.004388988373546582,84.58320226467234,-0.001842921207566873,-0.0009985634080594396,-0.00022508242367439893,96423.14697136777,,,
0.27,-0.0009534475130333796,0.002978501938025083,84.72837139843064,0.0022960872553825225,0.001282444753905783,-0.0011758762835488218,,,,
0.28,0.007242635591091635,-0.0027305581917026695,84.87480131277239,-0.0013219904609947464,-0.0006381458138042137,0.0020606400183081565,96420.01221396464,,,
0.29,0.0018266929365100446,-0.0020961504632622647,85.02542721473094,0.0004127278061762465,9.735701302798021e-05,0.0011656870515934523,,,,
0.3,0.0015735524760136547,-0.0024926137919952006,85.17838506120184,-0.0006456740509977954,-0.0007667695982797696,0.00036847315997810197,96412.45203061336,33.498645449914704,-99.33764502654171,405.5109630801777
0.31,0.0015614094907035274,-0.0046677408629595745,85.3266531596023,-0.00016199427535973455,-0.001755277864969727,0.0008259302678677653,,,,
0.32,0.0006667485986259405,0.00548818306375783,85.46783338130483,0.0008497843800663521,-5.931367491617313e-05,7.870438425052574e-05,96407.91106557265,,,
0.33,-0.0024097749435764908,0.0002781745864088452,85.60312376752843,0.001153601338595986,0.0002080233474148306,-0.0011257465656275335,,,,
0.34,0.0043334269343037034,0.0034281451438930763,85.75214810562478,-0.002036354762591592,6.581583224964061e-05,0.0015502337426494066,96401.94649650673,,,
0.35000000000000003,-0.002672346985716875,-0.0016068485133978816,85.86133100638277,-0.0002942472525865278,-0.0015735899854974395,0.0004902518122955536,,,,
0.36,-0.0019899286600636246,-0.003448149722941897,85.97366127388713,-0.0007356401895484287,-0.0006208170293840778,0.0010740431821628824,96393.30099575271,,,
0.37,-0.006159847642179605,-0.005720037301704157,86.09092631099136,-0.000290506131111401,-0.00045727929097494336,-0.00041436456773005775,,,,
0.38,-0.001938962840381626,0.00035659423224772475,86.21438057165717,-0.0011670342116177023,0.0012778199857406852,-9.167092832309164e-06,96386.50786047749,,,
0.39,0.0039626904034241964,-0.005500557918593224,86.35909157884831,-0.00034262247753529375,-0.0012744044041364073,-0.002753672291310734,,,,
0.4,-0.0009810108662546,0.000830457995611843,86.51751866224357,-0.0008519626736216172,-0.00020991982333299795,0.0006857650388816642,96377.80710955188,33.498614847284344,-99.33761202542173,418.3678158708353
0.41000000000000003,0.002453786965954999,-0.0024773215235051015,86.84880183592195,-0.00044031634645343707,-0.0004619602868614962,4.310150682279017e-05,,,,
0.42,0.0012817222699297456,0.0016646155819979834,87.19229948005528,-0.0011825445784933717,0.0015305579364879767,0.0002091247123470463,96368.48952589328,,,
0.43,-0.00016018880389375996,-0.0029804848092621424,87.32776042828678,-0.00021396209988938078,9.554850687869086e-05,-0.001452292180196729,,,,
0.44,0.004953687571074553,0.0008909555737246803,87.44416085704547,-0.001156286196484391,-0.0009237610931949703,0.00038564644190106887,96359.81824214067,,,
0.45,-0.001539860268276424,-0.0008606024184560241,87.61002489738976,-0.00066695140620788,-0.001316709140843979,0.0024168161785572614,,,,
0.46,0.0002590958609477403,-0.00509665663073572,87.77599925626477,-0.00016902698651163943,-0.0006458973813968464,0.0004459151264841107,96351.9853519878,,,
0.47000000000000003,-0.0007806487286687861,-0.0006730791987988673,87.8877290973492,8.885231827948648e-05,-0.001401487345370136,0.0007197581076293625,,,,
0.48,-0.0018649048376287753,0.0027958324909453536,87.99521939905799,0.002315015366321914,0.00093681010337786,0.00024973295009974217,96342.37250696971,,,
0.49,-0.0031079880016278137,0.0006117995642056982,87.93648267632847,-2.0888304355287315e-05,0.0005350499666162389,-0.0004187637694579025,,,,
0.5,0.0006565118961738559,-0.0020661038080718648,87.8577842654261,0.00064198931068379,-2.3072718939587678e-05,-0.0005227518100506394,96331.59218762312,33.49864029039271,-99.33760243170696,424.51898543026937
0.51,0.007777495468420155,-0.002694119196784669,88.07172448228295,-0.0015326707837815463,0.0009398360616442639,-0.0019517505806061135,,,,
0.52,-0.0015081088241886715,-0.004763953048576601,88.2959016969375,0.001077703269901124,0.0013683753808414563,-0.0019986495718435503,96320.72696478211,,,
0.53,0.002824394019291577,0.0008142013796799059,88.50393034129253,-0.0006550544233491427,-0.0008481269985988443,-0.0012106788182510194,,,,
0.54,-0.0005387146795984651,-0.007786681186337924,88.71370862599659,0.0002708569321849908,-0.000516123202720565,6.808546982733068e-05,96309.52869712417,,,
0.55,0.0012220605873140414,-0.0012499104630444872,88.95310339474076,-0.0007534674232172761,1.1155717957586746e-05,-0.0004928089282098639,,,,
0.56,0.001037350309400828,-0.0034476848054245182,89.20160833784846,-0.0019311244111032274,0.00028079888423216906,0.0004847106153443566,96297.16192658005,,,
0.5700000000000001,-0.0002846324338084744,0.004691834209921577,89.39494748083057,-0.0018387144079563067,-0.00033055923059377353,-0.0025113438393842484,,,,
0.58,0.005276891521651741,-2.7608303742679673e-05,89.60042352683271,0.0007590850327661721,-0.0008856383495567474,0.00033612300692359946,96286.05659467386,,,
0.59,-0.003822482688265013,-0.00023262767295383898,89.76552152136308,0.0008614607959592271,0.0012088321806823998,-0.002183247620495537,,,,
0.6,0.0025726523676260203,0.00021303237876417393,89.92497538736271,0.0005865408003778342,-0.001277711042087191,0.0006750324298662116,96273.30355711661,33.49861494298974,-99.33758303206184,428.6686939190155
0.61,0.001732161647081354,-0.0005233395249579489,90.06706788189581,0.0005624780739152932,0.0008552694152552114,-0.0006489961469563295,,,,
0.62,-0.0035118315605446003,0.00035540459536029104,90.2094039678191,-0.0014631026709870302,0.0010143082386967269,0.0017911116216386032,96260.92831214496,,,
0.63,0.005319942614506837,-0.002463614226043525,90.39506868920006,0.000751921257329157,-0.001852847286667371,0.00048376316891711143,,,,
0.64,-0.0007250558494274372,0.0011471850337539924,90.57749777985359,-0.0007931151789274402,-0.00035747137525032397,0.001020356771169124,96247.7632519013,,,
0.65,0.0032401361230668534,-0.00016910844520277147,90.83085985836699,-0.0002900902406626886,-0.00023159040894765777,-0.0011713918897545774,,,,
0.66,-5.933011531313494e-05,-0.0024990267493998158,91.08884215176272,-0.0019809601838776747,-0.0004247924210038825,-0.0009717613227266798,96232.88782516016,,,
0.67,0.0010231270239288027,-0.0008907512260657171,91.37584061524379,0.0010358770936361934,-0.0011467690701536897,0.0001143731149804488,,,,
0.68,0.00318868908713768,-0.004456847426675958,91.66756051028491,0.00043106753263733917,-0.000794529179076999,-0.0005844970436523369,96219.09562685492,,,
0.6900000000000001,0.0016951996442961794,-0.0015331555902467814,92.00372259753661,-0.0007613184913113737,0.0005300494302740728,0.0003143644655244097,,,,
0.7000000000000001,-0.0033544171708621267,0.0027960478309650935,92.33909051856165,0.0008068156142724006,-0.0007387465599761655,-0.0008991540611482766,96204.92889441476,33.49866460331036,-99.33758240520892,438.38666041980423
0.71,0.0018099405962548876,0.00062133422793402,92.70341754671097,0.0002950895902801034,0.00014042809986048718,-0.0002220927100858259,,,,
0.72,-0.00568381569668051,-0.002303916628942703,93.07473711924547,0.0018785204200261324,0.002667660213263597,0.00037831034720070035,96189.90237834411,,,
0.73,0.00023254079275006117,-0.002258366228461099,93.46601426959879,-1.4767845642285581e-05,0.0013843184786470864,0.00042575452589275044,,,,
0.74,0.0002132766707840589,0.0001765741480130979,93.86771087114425,0.0006495816933674997,0.0010843469508337545,0.00021408841021434784,96173.5497805577,,,
0.75,0.0020748036756950126,0.001112003370474976,94.27908473734131,-0.000810868272779823,-0.000936862417683075,0.0008132174160122075,,,,
0.76,0.007704099853720419,0.0032296810404659304,94.69256961752026,-0.00011545418027423194,-0.0016378262495281844,-0.0009026901667524164,96156.25754856579,,,
0.77,-0.007301728678078133,0.0006875212393895636,95.11657520628181,0.0011745412492006918,0.0006217599091781802,0.0005010455287650881,,,,
0.78,0.0018930519659772968,-0.0018278324403288287,95.52781365906104,-0.0016061372731547387,-0.0007903651234048793,-0.001303136075866492,96139.9736233448,,,
0.79,0.0002685589683553017,-0.0003653643558886189,95.92008968800326,-0.00011686272694940174,0.0008580939851397587,0.0016283890860826955,,,,
0.8,0.0036325694291265195,-0.00807782229286072,96.31330880835509,0.0010165131168988692,-0.0008124565260813726,0.0001557065490532968,96122.97661465722,33.498652319379595,-99.33759546000618,446.3990439882047
0.81,0.00477010074421126,-0.0036622573581685416,96.65668695985411,0.0010018259728666783,-0.00043090554566575914,0.0015784876653371787,,,,
0.8200000000000001,-0.00036574820991414504,0.00295242698633152,97.00437166262742,-0.0006304532957267755,-5.484519088140066e-05,-0.00023631926243317393,96104.63074617539,,,
0.8300000000000001,-0.0015570588905123085,0.0046596276399282635,97.2986972496167,-0.00047613610797564535,0.0005392960239913327,0.00036958557230985415,,,,
0.84,0.0017799942881476963,0.00027717910996647225,97.58453211467888,-0.00020928953057963918,-0.0007616466458113,0.0006862134684012191,96085.8949118903,,,
0.85,-0.0029841897604217004,0.006119631559911459,97.82643405063133,0.00010411879936553979,-5.9004488913364885e-05,0.0004639252231791096,,,,
0.86,-0.003150774709885451,-0.0009607800289878188,98.07723091316224,-0.0005613027166332503,-0.00015994943638483806,-0.0003867720889314629,96067.23845072593,,,
0.87,0.0015780037752456974,0.0022421772733567926,98.29960596997437,-0.0005081329143643792,-0.0021303254633374957,-0.0003793579660140168,,,,
0.88,0.0020083660602648406,-0.002722460323369573,98.50799545877138,1.1848452913803418e-05,-0.0011946466904718702,-0.0013112700765704108,96048.89650942126,,,
0.89,-0.006249316064292824,-0.002117516461457458,98.72864439996472,0.0021070830459481342,-0.0005751906362617851,-1.1367998540969553e-05,,,,
0.9,0.004459737071601235,0.0020589103242945076,98.95248517089743,0.0018969415661418115,-0.0002085805139816627,-0.0010846220228862792,96028.83953941424,33.49863104103471,-99.33763475836224,463.72581044127867
0.91,-0.0074489544187072215,0.000839804201507498,99.17933742471762,0.0008922726199929473,0.0011532834013067974,0.002531254329661694,,,,
0.92,7.445192813790306e-05,-0.0002138403660514892,99.41138473879013,-0.001053668620083784,0.0016775830666735565,-0.00029122786086414193,96008.33633714583,,,
0.93,0.0007123535679431634,-2.608865671112231e-05,99.62571835195222,-0.002411245333924952,0.0007708355152909114,0.0003514646395633467,,,,
0.9400000000000001,0.004755819903794872,0.0020728283607791644,99.8456704859729,0.0010460344379415057,-0.001681579229212733,0.0008728456292584664,95988.00395387677,,,
0.9500000000000001,-0.0018259591346145207,0.00230346694289885,100.0374188660886,-0.001884435575117107,-0.0007596313898719974,-0.0010745563227597395,,,,
0.96,0.0032348321179379693,-0.002103035024053177,100.21573011086143,-0.0010256753236822832,-0.0015627723136691506,-0.00016849794018349053,95967.12653412453,,,
0.97,0.0012521634506061686,-0.002637250041893358,100.36828141762939,-0.0010189859367340263,0.0004782779646069203,-0.0023857664131965543,,,,
0.98,-0.00047189458931008266,-0.009267510974052543,100.49811009195895,0.001434493479235505,0.0023649803112944508,-0.0004041218974590608,95945.04083744694,,,
0.99,-0.0014395430342225518,0.0013761145744407277,100.58602625443359,-0.0024942980961581806,0.000297665072681342,0.00107646690576967,,,,
1.0,-0.003429149992444583,0.0023326252370345266,100.65959093772585,-0.0004194409916933676,5.1747005048092865e-06,-0.00046742974850112415,95922.57928184459,33.498612742780686,-99.33762018082126,455.29819413235396
1.01,-0.0012700785012783188,0.0017981270625684615,100.70962116695158,0.0005754554388256302,2.6054968169921612e-05,0.00020126835920145206,,,,
1.02,0.00019474331775937235,-0.005866036295309029,100.76530473108012,0.001027330671085031,-0.0006353028243727162,8.680972287093352e-05,95899.82835406318,,,
1.03,-0.0026737314498962218,0.00301795188467831,100.8049877448533,-0.000885514108006171,0.002731587892237407,-0.0006256906616718042,,,,
1.04,-0.0020285501125204175,-0.0010560742339909234,100.85259802356687,0.0005009361016439272,-0.0013858477500113917,0.0007427326144125182,95876.7065588589,,,
1.05,0.0014926923452848215,-0.006434913058616235,100.92425607317688,-0.0004546181650051356,0.0018077311613172433,0.0002997042794161119,,,,
1.06,0.0036561382297854864,-0.0027316167577536208,100.98867428082524,0.0016251985608791303,0.0001955151839368363,-9.220441855171812e-05,95854.31837893461,,,
1.07,0.004413251853509527,0.0008469333922550528,101.09977047224977,-0.001551905500879065,-0.0015697735118980758,-0.0002081832798697247,,,,
1.08,-0.003835283061876825,-0.0005638652432397576,101.21008664682816,-0.0003931470525521505,0.00039785162190738975,0.000724022765295455,95829.93591244749,,,
1.09,-0.0030537388571984106,-0.0005281659303883261,101.33478219239838,7.499256059433234e-05,0.0009575054848275327,0.00012258174931367472,,,,
1.1,0.005156893192696154,-0.0009618879307404606,101.45374531371606,-0.0008284634359900462,-0.0015724380905137625,0.0004051787537874769,95804.03004657714,33.498656515646495,-99.33762480776281,474.8120766042048
1.11,-0.00462909697244887,0.0006108184697379941,101.5624715282099,-0.0010525473461918255,-0.0012017917352106276,0.0009957743889196223,,,,
1.12,-0.00023471036910472439,0.002218888882732293,101.66787725724039,-0.0006877119649153724,-0.00016076300027334612,-0.00018634853909051092,95778.52833404909,,,
1.1300000000000001,-0.00032446746373355193,-0.003485126482869901,101.75951178760975,0.0004948019674209739,-0.0010167942522193334,0.0014358742646666427,,,,
1.1400000000000001,0.0006056868002237974,0.003390019556058994,101.8463517760623,0.0011744521094916496,-0.0004429613138782283,0.0002940862831240531,95753.16593702283,,,
1.1500000000000001,-0.006892783301492197,0.0006868515341384711,101.91938754874394,-0.0002420783587171904,8.610403781175054e-06,0.000740048959861673,,,,
1.16,-0.0016777758629802151,-0.0006313269374956254,101.99447305060416,-0.0008301512307531602,0.0005198949179857525,0.0006653488820152564,95727.11465149246,,,
1.17,0.0003070144096654272,-0.0021631884646242136,102.0684065997556,-0.0008121817729000844,-0.0002783143888642976,-0.001055497562777829,,,,
1.18,0.005856508579627409,0.005930397744061827,102.14937720335307,-0.0008270259986884122,-0.0005947383465323055,0.0009537092455584612,95699.43753286105,,,
1.19,0.007617153959633303,0.00040469858106758705,102.2338594822757,0.0016349107432426747,0.0005902026008178218,0.0006183278549062611,,,,
1.2,-0.000870765578931603,-0.002604098978556895,102.31055121196573,0.0007160545228887638,-0.0021049905568525282,0.0010120271194116763,95672.96482759599,33.49863212278031,-99.3375860389435,489.670572908986
1.21,0.0008472381979196769,-0.0017296466875070327,102.3994302352856,-0.00020550784530850002,-0.000766153796894525,0.0006248062732029988,,,,
1.22,-0.0028633535060699597,-0.0031693564866579083,102.48759830692218,-0.002428730121302911,0.0015260961636598739,-6.168549824339771e-05,95645.97065383624,,,
1.23,-0.005104491518865994,0.0030490599646446808,102.56938900920605,0.0027990480231515225,-0.0004841996181341051,-0.0012941539108718594,,,,
1.24,-0.0007862267229090906,-0.004007924084244173,102.64607039153597,0.0005299496333250881,-0.0017381674035768762,0.0009350797712849492,95616.8758865574,,,
1.25,-0.0010468246228522114,-0.0034284950434736363,102.69617872584921,0.00011848117157209187,-0.0013048842722179696,-0.0009630555862143376,,,,
1.26,0.002322819637272003,-0.001186875361633444,102.75887902260061,0.0009882909416201791,0.0004152947292662977,-0.0013649398025824787,95586.79443527453,,,
1.27,0.00012399919010647848,-0.005571266084060963,102.80613261909613,-0.0005084996986857062,8.164219505513479e-06,0.001907790799943393,,,,
1.28,0.0017722443073410771,-0.005696394779789759,102.86158584985924,-0.0006252534923183232,-0.0011697480325581337,0.0008945437121698774,95557.67584364366,,,
1.29,0.005546507621563212,0.0008499914223494247,102.9119955398938,0.0017830339864209797,0.0008317940342175448,-0.000907612384860029,,,,
1.3,-0.0009204206298840605,0.0038055976632361175,102.95487191607451,-0.0005025235102741591,0.0011115347858368656,-0.0013687535842324494,95528.11308106143,33.49862108910088,-99.33756375130966,495.74894156068996
1.31,0.006684380343571076,-0.001720759695397301,103.02843859947617,0.0011329148665178055,0.00029159260602464927,-0.0002847840963308238,,,,
1.32,-0.0010325183007564766,-0.005851506927829341,103.09553991546305,0.0007528531545076856,-0.0011505885895927998,-0.0003035013503633206,95497.689130254,,,
1.33,0.005185266331047224,-8.793163219198054e-05,103.19455645175655,0.001314806096214508,0.0005361256910059769,-0.00039584007238789055,,,,
1.34,-0.004076598071005723,-0.002966349798463147,103.29527501277767,0.0012944648370489897,0.00020752301600440723,-0.00018010698669507707,95466.39199055675,,,
1.35,-0.0007979678581949456,-0.0025136962019101728,103.41227421139249,-0.0007202398105215877,0.0014721708580757937,0.0006828943818297243,,,,
1.36,-0.005032386310656174,-0.0022611705893443865,103.52950147435011,-0.0010189635485068232,-0.00020066244661811825,-0.0004479119767088126,95435.88478494943,,,
1.37,-0.0002926611751873462,0.0021101890741789006,103.66363904368815,0.00044404636905722805,0.0009396043030924624,0.00017406531369655042,,,,
1.3800000000000001,0.002105988186271005,0.0022256308948373758,103.80176890607568,-0.0007827948154016178,-0.0007813593797143444,0.0012758364701606728,95404.85578470737,,,
1.3900000000000001,0.0027412694372659185,0.0019866687047759403,103.97280662194595,0.0011615845932027463,0.0008952658120294056,-0.0005413452586053043,,,,
1.4000000000000001,-0.00419521887968954,0.00031087719142228957,104.14995958505988,-0.0005252481171490179,0.000489279569517129,-0.0019794384045759322,95370.40468609716,33.49859872871282,-99.3376193028027,512.6952465352183
1.41,-0.0018743206784042911,-0.0002481214726411177,104.37089612186553,-7.503827855161672e-05,0.0010180319472099632,-0.00018418981989142675,,,,
1.42,0.0039415213681186665,-0.0021866187656244137,104.58747698653849,0.00046920806388796744,-0.001723660840934307,0.0007414124728965156,95338.05738893278,,,
1.43,0.0033988794320002355,-0.001922061032873313,104.7488269520614,0.00025673686351161587,0.0008643519822924389,0.0016092294815354664,,,,
1.44,0.0032525078690222933,0.007262756289439274,104.9106585009294,0.0006628686313050055,-0.0017548439909537646,-0.0013510530302297268,95305.47457545144,,,
1.45,-0.0018137944040020541,-0.0021876311798634442,104.9900190076924,-0.00014989747055228582,-0.0009055679958665585,-0.0020100098555663392,,,,
1.46,0.0024746068136549185,-0.002080019849059087,105.05553728138686,0.00035200614077183037,-0.0005917297050447582,-0.0010157959496801077,95271.01196568343,,,
1.47,0.0015521294074075872,-0.0012772706426769193,105.0310349181248,-6.235425428291804e-05,-0.00047895162766297485,-0.0006275701845662532,,,,
1.48,0.00302138612667234,0.0020645940424786056,104.99611170719513,-0.00019918191913909935,-0.000941490752371258,0.00036243513225031403,95236.28390514264,,,
1.49,0.0016028379473119899,-0.0010069214825379111,104.90340638624969,-0.00040760027326668,-0.0003268594944572589,-9.842523859265393e-05,,,,
1.5,-0.0003895479877649144,0.0006717694468448407,104.8050088432266,-1.588141004121561e-06,-0.001284889242936188,0.0013476966318566948,95200.37861298525,33.49861250086278,-99.3376419997197,520.4762363007428
1.51,-0.0006056856751616979,0.002191856419195002,104.73749112156186,0.0008900251323333965,-0.0004753363370388753,0.0009105839288100516,,,,
1.52,-0.0013114561470666905,-0.002952439753906525,104.67736704227161,2.706384391942061e-05,0.0005088185247704052,-0.00026726875252418736,95166.42251563152,,,
1.53,-0.006163776533892643,0.00153139984243762,104.66294811035362,-0.0005331273360226386,0.0005896450843448375,-0.0009980389070102002,,,,
1.54,0.0027209494313309383,0.00017640665107935207,104.65129346757611,0.0017345292802898975,0.0008697041719873295,-0.0010780067974167265,95130.43044144227,,,
1.55,-0.004524986208784755,0.0017459394604855414,104.65091800202117,0.0009757359098536431,0.0014524046451366277,-0.00039896827189654687,,,,
1.56,-0.00131679396833031,-0.0031791857608861472,104.65965579664432,0.000771002484896489,0.0003471397708586071,0.00048554004100435965,95093.44381540567,,,
1.57,-0.0018210970437983894,0.0010851348759285061,104.6156342548648,-0.00026196531662902824,-0.0003490829025491376,-0.0005455626467957879,,,,
1.58,-6.722355904269955e-06,0.0005455517839442829,104.58527933671331,0.0007692989503379607,0.000573382951809886,-0.0010348155568986911,95055.36292200982,,,
1.59,0.0035117911493516376,-0.0014929134934335347,104.49308398784386,0.00045074325147802317,0.0007149967832621325,0.0014231779969365555,,,,
1.6,0.004626322112091442,0.005375520043012497,104.39651252728177,0.000635193825906426,-0.0006815339277544813,0.0011349335599685861,95018.54543675591,33.49868768335221,-99.33766087904233,540.3979853521598
1.61,0.0009229592073359021,3.3865627687088275e-05,104.24004644819541,0.00021905129017067652,-0.0005208418955533221,-0.0012326230129143592,,,,
1.62,-0.0015233332651768388,-0.0020643326730139322,104.07508757417756,-0.0016305389733734428,0.00015851079177570495,-0.001078856340898397,94980.10696945387,,,
1.6300000000000001,0.0026230983671779637,-0.00037239670250454866,103.88160662132503,0.000521206266188063,-0.0001325159763092935,-0.0003048006090554524,,,,
1.6400000000000001,-0.00026482811507157845,0.005845455379315947,103.67588780393906,-0.00020354099581120354,0.0002337625508197558,0.0005803562735465507,94940.664410766,,,
1.6500000000000001,-0.004821611009485045,-0.0003219515405003099,103.48873423740503,0.0003166594665753987,0.0007223818331649474,0.0005608249480800155,,,,
1.6600000000000001,-0.0011846412634205082,-0.001541124295459135,103.29488333953694,-0.00032307964938873114,-0.001255100390321777,0.0002953141573972493,94903.51605852049,,,
1.67,0.0018460902833015518,0.0031601502774992745,103.11795519901075,0.0017166039550159929,-0.0013839059849917173,-0.0004703823878700376,,,,
1.68,0.0017881726253586583,-0.0022154905546387586,102.93772572345642,-0.0014274530424648831,4.5499221569765735e-05,-0.001162890616478971,94862.76004974215,,,
1.69,0.003416030457119951,0.00012286451542188408,102.77406181263285,0.0009319276032687831,-0.00044812877639980426,0.001125480518693353,,,,
1.7,0.002114063632735833,0.002991664346336635,102.60499050626304,0.002023998622719769,1.6912252683134013e-05,-0.00014457461114588004,94823.36402634226,33.49860049637127,-99.33762149590407,551.6840187562714
1.71,0.007945165705658373,-0.0030246345080970857,102.43695700830956,-0.00027371047580574163,0.0005251060387108853,1.0015284913733289e-05,,,,
1.72,-0.00321990204224168,0.00331767030747291,102.27924694548436,0.0005717347778738714,0.00037710768006621645,0.0011457587501873204,94782.50028107585,,,
1.73,-0.0017681151602178095,-0.0008712772312019177,102.12051575025166,-0.0005458282716038071,-0.00010932301487318043,-0.0005389117558161445,,,,
1.74,-0.0002279365440236344,0.0020794185754595485,101.96110433537255,-0.00027762240201715404,-0.0007286536829031661,-0.0001371454028824359,94741.98160539324,,,
1.75,-0.0004581050387352623,-0.002903564132761825,101.81470232854907,-0.0012268796028886795,0.0010434155469819196,-0.00026704996551673595,,,,
1.76,0.001673021103920226,0.0007413974456238358,101.67636373075324,8.615391457461436e-05,0.0009205176359883472,0.0006237234078719103,94698.29427295935,,,
1.77,-0.0022085716630719696,0.0013389180936628636,101.56063220871103,0.00046007013727759086,-0.0006472553110552278,-0.0003576558773294362,,,,
1.78,-0.0010023603486442913,0.006053485536793457,101.4480131405939,0.0008110489564812287,0.00047845401188730907,0.0008444033634783444,94657.29590909212,,,
1.79,2.5770452749522008e-05,-0.00021104013051792154,101.35171295152742,-0.0005576323953118926,-0.00020682234350050937,-0.00036253880904871434,,,,
1.8,0.0005307206717530228,-0.003032955342783251,101.25462023350138,-0.0024174585063829216,0.0003531944157064828,-3.296475279962868e-05,94613.60704718683,33.498561558464715,-99.33766099652392,576.9055707280122
1.81,0.0011559623174976202,-0.004196342719807108,101.14829412608407,-0.0005683269384012716,-0.0012782875582388695,-0.00038565979606885206,,,,
1.82,0.0008003920632144011,-0.0014561493811482494,101.03757197390304,-0.0009726944948966633,-0.0003313703500309556,0.0015568455832657788,94570.68174866617,,,
1.83,-0.0045860013718671926,-0.005133726234587681,100.88243151584722,0.001419106747101396,0.0010215106979042697,0.0009779615576926692,,,,
1.84,0.002427389920968595,-0.0005827589810156413,100.72632790785688,0.0008735532470722782,0.0004945722446009644,-0.0008991329150963551,94526.81468707431,,,
1.85,0.0020910354534693964,-0.0039368090269194765,100.4948254155993,-0.0007961872924577741,0.0003339393616470775,-0.0011811392807983536,,,,
1.86,0.0029178613523930435,0.0025032453651055516,100.26780679937531,0.0011367755124179317,0.00043174801906690216,-0.0007337509476529717,94481.8055510367,,,
1.87,0.0014041531264682803,0.00038884073133795796,99.97938913210862,0.002260088146642834,-0.001292776263641002,-0.0005616850377835552,,,,
1.8800000000000001,-0.0031489180092160157,0.0012450515457468336,99.6854648965284,-0.00036946195035698995,0.0003142328666945602,0.0012372067436189895,94439.31996006817,,,
1.8900000000000001,0.0015574591858462032,0.0010760221806706452,99.3615917486987,0.0012878458381878613,-0.0015125673549487562,-0.0008215722140800752,,,,
1.9000000000000001,0.004606943567519595,-0.003003520877724601,99.0319301120727,0.0005698157673550074,0.0002793311044967915,0.0005779699230541705,94393.5240651646,33.49863673141398,-99.33764368845185,590.9790915496537
1.9100000000000001,0.002578718430931202,0.004585529426684211,98.68933983167982,0.00044155314825920636,0.0010676073425072582,-0.00041381845781500047,,,,
1.92,-0.002047037995527764,-0.002535150880210395,98.34507688405591,0.001001683397899304,0.002289587973839266,0.0012601679477555426,94347.6305980487,,,
1.93,-0.00023833223373072578,-0.0007593794053311427,98.0148817651079,0.0008893018255100062,-0.0005494191315586283,-0.00021177361463277217,,,,
1.94,-0.00291809539388054,-0.002017190312689793,97.6824019895885,-0.0009942907187173071,-0.0017568855383819477,0.00043261453404243,94301.39767034672,,,
1.95,0.0031432007093348496,0.0021942304227322144,97.37114092163078,0.0003732202378719196,-0.00037681541522350913,-0.001922350813339961,,,,
1.96,0.0021694859623319377,-0.00035171451033561056,97.04464300907799,-0.000902910696999352,0.000954938611230903,0.001624104581048927,94254.75549240207,,,
1.97,-0.0015594690151468837,0.00011612804974915438,96.68647901043508,-0.002048360280855374,-0.0014497183046798335,-0.0004891319998945615,,,,
1.98,0.0001226742657365594,0.0019301698556962199,96.32572326834425,0.0004891707193393357,0.0014138758586432017,0.0010355202999437652,94207.55344146585,,,
1.99,0.000746341562400776,-0.0031374684149540356,95.9488378239882,0.0014384661308335185,-0.00043004125890605847,8.239526796097159e-06,,,,
2.0,-0.00011952825544997274,-0.001613802339236229,95.57242396191488,0.0009108629775474629,-5.2025176806073746e-05,-0.001705786255936342,94160.71460111484,33.498600184834885,-99.33758836341654,608.9433332349923
2.0100000000000002,-0.0035840328235118677,0.003153783918458936,95.16416498346565,-0.00020475148393061585,-0.0006157877034196544,0.0008942585138487495,,,,
2.02,0.0020012201193870317,-0.002246472129754006,94.75906131274408,-0.0010857466054242726,-0.0015433060443504544,0.0009875433688118032,94112.23801261865,,,
2.0300000000000002,-0.0032205312283836362,0.0034973421272145623,94.32558834039692,0.0004669898444370301,0.0003650749054574567,-0.0006457398521987783,,,,
2.04,-0.0016004342427498183,0.0026700525726775807,93.88945521932074,0.0007873772060039107,0.0013432854991300555,0.0012685874352110582,94063.7636568467,,,
2.05,0.00589164572043496,0.0016181811206386232,93.36167768969024,0.0001855855819350182,-5.631191295636856e-05,-0.0006104101278707663,,,,
2.06,0.003458993610073038,-0.001105682531312084,92.83335181344329,0.00028981947129986434,0.0005405396892460806,-0.0005703518790332371,94015.33760076136,,,
2.07,-0.00017663581715317633,0.0013568772977451018,92.1892660055052,0.000590110145810034,-0.0006239464811091351,-0.0006300763368912129,,,,
2.08,0.0013621851880458555,-0.005178666569867096,91.5545341262563,0.0015765492827064527,0.0005578873773823854,0.0013870782529921976,93968.23986968007,,,
2.09,-0.00017418350054036757,-0.0003618594125453489,90.86021623156232,0.0005703486392448341,0.0007904547266327687,-0.00023834012541379905,,,,
2.1,-6.094995420744953e-05,-0.0013570477367166281,90.16248190217657,-0.0003671081428669018,0.0021931502680062505,0.0006663625175771662,93917.23080768035,33.49860984078604,-99.33758357054414,624.0340030112895
2.11,0.0023764850464880263,0.0023505741925001927,89.42609195308631,-0.0018738039035138142,0.0021237566365233896,0.0003406253006958003,,,,
2.12,-0.0037320242620399566,-0.001350988893158902,88.6922205446645,0.0003549052441946237,-0.0013848195610151083,0.00016824301941964598,93865.17433485729,,,
2.13,-0.0017281974618859129,-0.004461758990702404,87.97493219427817,0.0009695667175113656,-1.1154964408700448e-05,-4.7627766725070786e-05,,,,
2.14,0.0008342952583774594,0.0013703702267754048,87.25911938277851,0.00022790590572647942,0.000752109613421911,0.00101885336319124,93814.19813897536,,,
2.15,-0.0030516675102388088,-0.00032060362852315586,86.6040330293964,-0.0017621294790594322,0.000555152269246195,-0.0006228377328690748,,,,
2.16,-0.003330118656246917,0.00359812844959839,85.95159041470555,-0.0006884391835343336,-0.0004714488932451758,-0.00040579384556359315,93765.34023331465,,,
2.17,-0.0015997471480192426,-0.0023384921950524995,85.3326041489717,-0.0014089228477988688,-0.0007425749626067124,-0.00020677465834728333,,,,
2.18,0.0004195980542346511,0.007463090587614738,84.72051354342223,-0.0005322830836380796,0.0009753871823717481,-0.001560447850938969,93711.86182217064,,,
2.19,0.0018670307664828318,0.004303431417701224,84.10575436934768,0.0006166196686017677,0.00045466970989210766,0.0004672870743122211,,,,
2.2,-0.002590183049748143,0.0006804432501070069,83.49602897662727,-0.00019978876572044618,0.0016921534733603495,0.0012341172515359295,93661.45641909831,33.49863411061618,-99.33763493132756,668.6620226833795
2.21,-0.00197315250618278,0.0014025296101757118,82.9113589856866,-0.00046676538520915213,-0.0023262221134610545,0.00017388198214109073,,,,
2.22,0.0010876354106602506,0.008130974570804531,82.32893938880319,-0.00015272626350935895,-0.001415943636050113,0.00031096725471028123,93607.68341503183,,,
2.23,0.0017530707682167945,0.0008917797744618589,81.74097848771973,0.0002111218476210001,0.0005338982334710757,-0.0010641776381482581,,,,
2.24,-0.006536823464283447,-0.0034602784468811747,81.16272042363921,0.00104871900831653,0.00028480337078356897,-0.0010671429128130867,93554.48411418125,,,
2.25,-0.001223487970239577,-0.001392359272024754,80.60938432174625,0.0012635563719626739,-0.0014740234573659534,0.00011910270573299384,,,,
2.2600000000000002,-0.0042703589867864235,0.005890982345672073,80.04291481629389,-0.000686412879684026,-0.0025355906346853506,-0.0014722400951394912,93503.16167449621,,,
2.27,-0.0035815471073615463,0.0005477486930839402,79.54472750185982,-0.00039194827186987235,-0.0007981454866996877,-0.0002916104915330044,,,,
2.2800000000000002,-0.0004360232047969178,0.00030010907331189405,79.04014138120546,0.00025714818753231385,-0.0008376650155976185,-2.3453850445670716e-06,93448.02728839082,,,
2.29,-0.0031219726323623116,0.0007820189434531357,78.60401258592839,0.0005383305891498218,-0.0009756970386307202,-0.0008480897546427569,,,,
2.3000000000000003,0.004657069090245021,-0.00012211418778435034,78.16180702626818,0.0014085985690077969,0.001091711180741374,0.00037783800459193265,93395.85774395082,33.49864167959066,-99.33759768672867,676.2950682000102
2.31,0.002552612873601309,-0.00100310460389574,77.67835708043937,0.0006096988937035185,-0.0005747070511933545,0.0012913296583981374,,,,
2.32,-0.00046113973509365354,0.006631741382863696,77.18217247435678,0.0020747448852746755,0.00044306578703912357,-0.00033859228186145483,93341.70167000768,,,
2.33,-0.002386573935267817,-1.5253922417894133e-05,76.55946838308566,0.00040757654095223975,-0.0006174387980686183,-0.00038806290062227077,,,,
2.34,-0.0020030577489154864,-0.0027887924944043434,75.91947189333165,-0.0004079756599613539,-0.00024154138288112861,0.0006117502252255797,93287.48838765745,,,
2.35,0.0028509335189333056,0.0023448514422758937,75.28220134431274,6.746894262488886e-05,0.0009709427234346392,0.0006328175405681843,,,,
2.36,0.001688712340425051,-0.002990416529733715,74.64260934977028,-0.0017239005431924069,0.0017365359611998395,-0.0008960078254049696,93232.03860049706,,,
2.37,0.008189362156904533,-0.003442978397384898,75.76845197585014,-6.173229077938684e-05,-0.00037076981740812883,0.00033573652524531463,,,,
2.38,-0.0019438531920153294,-0.002917674583466891,77.0315983007626,0.0010451587109733841,-0.0001741354870227477,-0.0003576037618591329,93176.43099464456,,,
2.39,0.00246363089499224,-0.004540464341630632,76.93797748719781,-0.0005371371732483973,-0.002417585993233273,0.0020522866634369316,,,,
2.4,-0.000148456688651657,-0.005845377552682148,76.73078566751272,-0.0006157310117699262,0.0009384834354005741,-0.000427923090166201,93120.8834029677,33.49865008468225,-99.33761115941542,714.6574956736963
2.41,-0.0005579860539282855,-0.0017067658374118758,73.03037555127169,0.0001676098251339772,-0.0009979856399181864,0.0005050404514065926,,,,
2.42,0.0009025490310482327,0.0016358256085244932,69.04661962685839,-0.0010718928318935728,0.0002829998887677456,-9.627764940779101e-05,93064.82949138139,,,
2.43,-0.002510385294545361,0.003999123071850449,64.31469698531791,-0.0001354375196116972,0.0005629048717795997,-0.0010705914932729375,,,,
2.44,-8.606838720238394e-05,-0.0019077079206488911,59.518080770806826,0.00013025177667933262,0.0024435706699627354,0.0019884065268288625,93009.7717797482,,,
2.45,-0.0020084786485421026,-0.00292974594367486,52.77651828004084,-0.00012019319253298782,0.000954600728361753,0.0013286613226662267,,,,
2.46,-0.0014646007882408163,0.0005577273244414947,45.86124971168286,-0.001419795466240599,0.0020596667157506757,-0.0011022306992840133,92952.94126171136,,,
2.47,-0.0013489134742420002,0.002653940929206275,40.40998633027735,0.0004503080972011517,-0.0010544036358417662,-0.0005012815425979068,,,,
2.48,0.005648588809611188,0.00552025547123484,35.08057348431009,-0.000544405853834197,0.0003893475990562579,-0.0006948539357369374,92896.15140778167,,,
2.49,-0.004594163677382863,-0.0053439060016823,33.26680804954764,0.0003802572497239344,0.0009071563203495256,0.0012165905043856418,,,,
2.5,0.0038971382763386036,-0.002656772806203692,31.75582884397573,-0.00047672453235554423,0.00034416709005094406,0.000699976332657802,92838.43439656684,33.49859506088197,-99.33767268888603,730.3224931380236
2.5100000000000002,-0.0005857624101620385,0.0033471614514003407,31.081636762418498,-0.000420736889027416,-0.0006810926468266881,-0.0006232174878473592,,,,
2.52,0.0004917651978565826,0.0034087572809415024,30.48848359877562,-0.0012863893699429079,-0.0004767315124781305,-0.0005796366700079921,92781.5971024351,,,
2.5300000000000002,0.0011397985609930402,-0.0006063581669202635,30.081381477862955,-0.002368914357295557,-0.0005916383381521361,0.0008015637667704321,,,,
2.54,0.0053266409291112884,-0.002006474687955122,29.67381354314524,-0.0007618740593751861,0.0005962006821097575,-0.00015690250769652582,92723.97212944999,,,
2.5500000000000003,0.0037724378785658915,0.00043416094798524207,29.266600253831133,0.0013993367614587755,0.0013446469541148725,-0.0008275834610009143,,,,
2.56,-0.004258840141380301,-0.0006532973763636444,28.858997405613724,0.0005447281282830675,-0.00014750109232239186,0.0010428896941287675,92666.477865645,,,
2.57,0.0012789167808268794,-0.0008881072804007263,28.591148805168462,-0.0014818951854098253,0.0001042584522000362,-0.0002292276650051335,,,,
2.58,0.003762632160422678,-0.006967684163463548,28.34031684078941,0.0004161171152301774,-0.0006343676910488942,-0.0006896253154017361,92608.31570574548,,,
2.59,-0.0007641781817718341,0.002503440573659425,27.96775794988097,-0.0017464712303061642,0.000787631731225427,-0.0019490838785265034,,,,
2.6,-0.0017785468547454528,-0.0032829232547396774,27.579716672214598,0.0011148697084633773,-0.0007119382224954845,1.5575772658519403e-05,92551.5053227436,33.49863100807596,-99.33763797784688,758.0031828659546
2.61,-0.0006255746021191872,-0.0007461836913432118,27.170270895007302,0.00033996263139968457,0.0005113699959477346,-0.0002907624712742007,,,,
2.62,0.0008149287076681233,0.003720927430698541,25.32960222821769,-0.0008120767423799601,-0.000554492074534867,-0.0011645258825302286,92493.07484278135,,,
2.63,-0.00481730909400841,0.0008555892577500672,26.382571032370645,0.00198215515774259,0.00014798534722191948,0.0005366718255106356,,,,
2.64,0.0021478539001037124,-0.001618593439648093,26.00025261388675,-0.0005814688822741562,0.00035485848565794447,9.571736912780099e-05,92434.75071312636,,,
2.65,0.0017298269497734223,-0.006854286346099197,25.6274226119746,-0.00043377478034495196,-0.0006963695857612335,-0.0014218915833649067,,,,
2.66,0.002501270113529668,-0.00400168979992398,25.24804803697382,0.0010061818504879002,-0.0005598065190410143,0.0011415416776422117,92377.4260414239,,,
2.67,0.004626480163975483,-0.0014264874408588682,24.91878601655026,5.14444564611961e-05,-0.001327808502793778,0.001909838493161578,,,,
2.68,0.0016989687360867702,-8.310421998470629e-06,24.59055000323216,-0.0001844054106501256,0.0003938677466153547,0.002195511282241786,92317.82769805829,,,
2.69,0.0022209778382303986,0.002133221971989415,24.290561786733143,-0.0010560019719764928,0.0010472166749705615,0.0017108213719837402,,,,
2.7,0.0034694058414380395,0.004202919482836429,23.9935386612875,0.0005702523623955778,0.0017619087411273808,-0.001593688795246935,92261.23006252157,33.49860285173616,-99.3375729371162,788.7887445335695
2.71,3.5054012330386244e-05,0.007170627575388854,23.70150714903748,-0.0006638497905907622,0.0009810538541424824,-0.0004670334702492698,,,,
2.72,-0.002577888529419316,0.006058841692878926,23.416561961541436,0.0005866732757108579,0.0005752455646850785,-0.0005373492126818084,92202.80172976562,,,
2.73,-0.003631733584380252,-0.0021038710337585686,23.122046330164075,0.001468628303052983,0.0002738212614976178,-0.000625802997384524,,,,
2.74,-0.0026696882692989216,-0.00017214687289570936,22.817272949211173,-0.0005420654888644958,0.002080010784645343,-0.00017450342347148987,92143.0449308034,,,
2.75,-0.00136544335205629,-0.0020483185101802625,22.52796621492386,0.002259430963049849,0.001181285660845887,-0.0004925908842984061,,,,
2.7600000000000002,-0.0022527279584939486,-0.003085851579748766,22.247651695143247,-0.000166343259428672,0.0009665650144984798,0.00018460924300529248,92084.75910362513,,,
2.77,0.00407963347654347,0.0027863271086914975,21.95363786914559,-0.0010006982630417485,0.0012595553837792671,0.00019543891671652163,,,,
2.7800000000000002,-0.0003521755717068308,0.004349139526054858,21.675173644427854,-0.0001351598723847738,-0.00013245218655801827,0.0003448448616771232,92026.35576667798,,,
2.79,0.0029839391939973196,0.00819307026844596,21.407907493012555,-0.0001008883618883589,-0.001490202301855704,-2.7819370407512414e-05,,,,
2.8000000000000003,-0.0008168864816039594,0.004613225692623492,21.152028868049083,-9.36033990046144e-05,0.0007445183647031491,-5.8057008756070315e-05,91967.50435992806,33.49863296186697,-99.33759766051158,819.6576040195365
2.81,-0.0013470255857001095,-0.0038595610416899333,20.91606980672964,-0.001659406790595865,0.0007724091266945334,-0.0005872588678337662,,,,
2.82,0.000870551521542748,-0.001290455383946108,20.68148418609437,-0.0002507069684274212,0.0011191067807568712,0.00019863192634670716,91909.52693957879,,,
2.83,-0.001061015608964907,0.0034101163051193074,20.438458255243976,-0.0004386797110658279,0.00021794244672349982,-6.523580648650168e-05,,,,
2.84,0.00017131368763485905,-0.0018188662213939467,20.20413113251228,4.872589086886469e-05,0.002826609249937369,-0.00021669681218565342,91849.48552755557,,,
2.85,0.0009827796953639255,-0.0014757464072671868,19.997855525861805,-0.0016124290571950075,-3.86435358282719e-06,-0.0010227380328885522,,,,
2.86,-0.004052107213273135,0.0015463436010208884,19.789079532361672,0.000501475352012262,0.0011398252895528898,-0.0005560175390853055,91789.12493887186,,,
2.87,0.005309522244788588,-0.009069735833359599,19.576599601168393,0.0006775060783967837,0.00010371384787755045,0.0009995549200193731,,,,
2.88,0.0016178770204520667,-0.00933261311964894,19.362307331594508,0.0011009112932704366,0.0006233733361216094,-0.0005578582036490547,91730.71458864491,,,
2.89,-0.0008587201827843275,-0.0047479493026255,19.10280297607051,0.0007304534625393313,-0.0014668356154870221,0.0002057351651284616,,,,
2.9,-0.005013492399490564,0.0032663061983714,18.84189386400179,0.00013091368518769323,0.00016915731631233314,0.0008935871187029077,91671.53776839802,33.498641255546225,-99.33764425308986,836.6976150879254
2.91,0.0024602947022835196,0.005490180205389918,18.577406239781798,0.0009533079404546238,-0.0014349921021831289,0.0005322008122553877,,,,
2.92,0.001320913799818708,0.0002795828181428704,18.31459048884443,0.00012882804609412786,-8.26301379852242e-05,-3.596085850320597e-05,91612.0941913984,,,
2.93,0.0037926798202592136,0.005181030539152156,18.02730231073075,0.0002058164788539068,-0.0004383773698774274,-0.00010680316871199456,,,,
2.94,0.005575030036667533,-0.0003309126538496832,17.735543757617183,-0.0006047989179979095,-2.4886752889203647e-05,0.0027792598257874402,91550.99976387793,,,
2.95,-0.0026876272355164195,-0.007853127458751741,17.419815340297777,0.0014900253398153404,0.0002886131247169931,0.0005146550790392049,,,,
2.96,0.003366367130970233,-0.0028218970212039946,17.10838222604388,-0.0005176420062682828,-0.0017598143012440652,-0.0006747698183268087,91491.68766273289,,,
2.97,-0.006698700354574354,0.0013053254421986579,16.787086161609345,-0.0024531157984987546,-0.0007780665542370381,-0.0005527954427793509,,,,
2.98,0.0011911553248083267,-0.002231835829864407,16.464185535408713,0.0008555632044252219,-0.0006806339598142807,0.00027051923652197436,91434.25464352622,,,
2.99,-0.003128104162112098,-0.00446907918149737,16.135232049475725,0.001203238608782861,-0.0005279962434845789,0.0010159029188487696,,,,
3.0,0.0004070137012302792,-0.0008681371698045982,15.800442384057177,0.0007256748317335657,-0.00022072633379033232,0.00045542882264027113,91373.84363196131,33.49862007768566,-99.33756711560657,860.4779082465353
3.0100000000000002,0.004873017912495072,0.0008996075650449427,15.467693006905506,-0.0010187363656428772,0.00028393842097116403,-0.001209874700954872,,,,
3.02,0.005107615263813127,0.00258218618348763,15.141660037692699,-0.0012301232206815712,-0.0011274521143449462,0.0003064629394675376,91313.88236990232,,,
3.0300000000000002,0.002034276009601455,0.002113401431827662,14.815437854703205,-0.0004984833393610638,-0.0010176094165203283,-0.001129902327230432,,,,
3.04,-0.0036198410256996112,0.0003639519080934593,14.494333196286272,-0.0021648989977854573,-0.0013383555044250907,0.00029690022129057,91254.32656884324,,,
3.0500000000000003,0.0008162043340581492,0.008174851915928188,14.196009542001772,-0.0014382707973197224,-0.0012826334784333967,-0.0006733633268638662,,,,
3.06,-0.003859692245285805,0.0023867141099076987,13.888575956272597,-0.0002839214895955781,0.0001141456232993228,-5.5297679135247994e-05,91194.59479440916,,,
3.0700000000000003,-0.006355963300940582,-0.0005707232921789892,13.602321903245867,8.138524953202259e-05,-0.00021699827260979865,-0.0005899671624671028,,,,
3.08,-0.005870054344664641,0.008404069329302325,13.300430047724122,-0.001154542337861327,-0.00022312513309396056,0.00015236890839891612,91134.52649373293,,,
3.09,0.0002576897252341519,0.00488404778507606,13.010535506109935,0.000984704562255497,-0.00104531228727824,0.0006431177661095557,,,,
3.1,-0.0046272669959663585,-0.0009288362579622572,12.718683972140255,0.0007401164423498069,0.00014607232999993785,-0.00016121303506411714,91072.89833605645,33.49864309005231,-99.337642008246,889.389738620042
3.11,-0.0017064225183958525,-0.005236948659969928,12.462836751014828,0.0010664558459783904,-0.00030777362092296155,-3.0635423810433085e-05,,,,
3.12,0.001999469458308596,0.004514317329734252,12.214699626455083,-0.00015194326708028484,-0.0018408708224050912,0.001417515368563608,91013.86347055079,,,
3.13,-0.0008784679934900018,-0.0028835285979660215,12.00587806292953,0.00046550079119692914,0.000259061177473227,0.0002643645920905683,,,,
3.14,0.0018009112688478304,-0.0051948127693104106,11.808417938890257,0.0017705078989169796,-0.00015933985213443844,-0.0005194620687615985,90952.66053878453,,,
3.15,-0.001140071072613807,0.0027382501994790633,11.619488149675213,-0.0005399874227731794,-1.1595638787859907e-05,0.0012479399909052535,,,,
3.16,0.0027881236624596973,-0.003699512729541249,11.434725702682911,-0.000937204245779101,0.0014054480676792228,-0.001216792727119697,90891.8249271673,,,
3.17,0.0022896063991930536,-0.0007205430025860808,11.24379064553976,-0.00029474443831224674,0.0005279758881035092,0.002040185245127548,,,,
3.18,0.0031096307385136165,0.0017442832169665924,11.057167043841977,-0.0009594005721490388,0.0004074359014618238,-0.0007607559832392483,90832.49292423035,,,
3.19,0.004697096173531106,-0.0012790249912296566,10.838960483933315,0.0013912943236367452,0.001335592528875489,0.001561563812677144,,,,
3.2,0.00038406402429430196,0.006772294228923021,10.6124550405849,-0.002297375055926083,0.0014706785281013647,-0.0005388316266363425,90772.9506482509,33.49863521163352,-99.3376100509913,911.9435982564803
3.21,-0.0007907285537077882,-0.0019097609548364882,10.333958143625168,0.00042948952748485015,0.00037153354716789314,-0.00020548387175962663,,,,
3.22,-0.004614017126490827,-0.0007990520016461175,10.061103844759597,0.00031453046935931106,-0.0009976257029413594,-0.0002485541704053277,90711.69551075865,,,
3.23,-0.0015517803148831773,-0.0035031249451910685,9.680843369459335,0.001271585174041214,-0.0012521588302429698,0.0009926859819026775,,,,
3.24,0.0016193638786520406,0.005156573126147923,9.300914974465028,0.0008540933049920598,0.0001671224776076798,5.330919913689038e-05,90651.83857426254,,,
3.25,-0.0004623288745534113,-0.00191691524942041,8.798417709662214,-0.0002583259877299585,-0.0003166982393130263,0.0001662495923079095,,,,
3.2600000000000002,-0.00023437844694993294,0.002973715890548642,8.285775653975232,-0.0021685393554951977,0.0005569712378472653,-0.00037373104983343976,90589.60886904977,,,
3.27,0.0009221996150003584,-0.0009116070184224328,7.734072905260007,0.0006139031317497529,-0.00020757632336192811,0.00034828194646403966,,,,
3.2800000000000002,-0.0010001021117356285,-0.0016119330350997283,7.189930993625064,0.0019008671466287962,-0.00038841230516421576,0.0003516468528866846,90530.02123785292,,,
3.29,-0.005521148831504345,-0.0016180438514889761,6.6072654107535485,-0.001192240608972885,-0.00138978830329667,0.00037521507204546755,,,,
3.3000000000000003,0.0024784271436808663,-0.0005442868432847505,6.010207697164623,8.283290497411642e-06,0.0018556526287704857,-0.0004730958655760277,90468.56390433297,33.498622935642985,-99.33763536670843,951.686808767207
3.31,-0.004311954374885905,-0.00480166398353654,5.389434213180838,-0.0014853728930055877,0.00037294829258722117,0.0009797776867822756,,,,
3.3200000000000003,0.001041472344911883,-0.003207421799451567,4.777569891081311,0.0004427555024383851,-0.0004827130608877363,-0.00012196460573844597,90409.05768117945,,,
3.33,0.0015260885195425278,-0.0041407101658184325,4.090419336007219,0.0012820495865444015,0.0013379081952226979,0.0004543803598550142,,,,
3.34,0.0012180432624941265,-0.0020383738796940654,3.4052493903301335,-0.0013512197622522724,-0.0002448132865140098,-0.00019126790151650124,90348.08239454745,,,
3.35,0.004036870369749078,-0.002748916151973907,2.5148913069148926,0.0008727173940003651,0.0010237239157596346,-0.0008026367053183135,,,,
3.36,0.004920474396006003,-0.0020623503332209644,1.6020396944794457,0.0006759909862391428,0.0001622514089555163,0.001818251554824293,90288.39239435777,,,
3.37,-0.0011220806719287456,-0.0017225491264036454,0.4463605895470851,0.00015870207879451395,-0.00022380532406193857,-0.0009542879365163541,,,,
3.38,-0.0035346120572231393,0.003232026021297571,-0.7243472716060869,0.00017602450881375455,-0.0008034158333000377,-0.0002527845179255613,90225.48286379103,,,
3.39,0.0002679503319290827,0.0004485125929908006,-2.115335475754279,0.0006323106581642313,-0.0006705034078941925,-0.0006710297942216282,,,,
3.4,-0.0021939590612514753,-0.000865119341033194,-3.5322385921080963,3.3563547906601386e-05,0.0006851103340674333,-0.0016995795230323413,90166.85434840135,33.498651932833084,-99.33762922436719,974.6745787452807
3.41,0.001072441154998674,0.0026048953534567876,-5.039706057110086,-0.0009198505153839486,-0.0007745743741999182,-0.0016380565794893167,,,,
3.42,-0.001223457588320322,-0.006939789522017236,-6.563287050829725,0.0010988270383884891,-0.0003911320593520051,-0.002086788251104794,90105.30465911975,,,
3.43,0.0036990237614785977,-0.00010175187135467065,-8.020898837271227,-0.0007206191577442375,0.00020194548519841753,-0.00037259038034442177,,,,
3.44,-0.002091147793466942,0.0031984466828872318,-9.469291411277462,0.0004106439704575679,0.0004248342434518329,0.0002992973932356306,90044.10727451323,,,
3.45,0.004765108874810195,0.00010293383411327233,-10.76560249260135,0.0013514627515456327,-0.0005123893513897243,-4.8388805062390834e-05,,,,
3.46,-0.003020990816768459,-0.0013969760830921322,-12.044045403195176,-0.0011262420640845952,0.0010008441492534198,8.30531356541779e-07,89984.48169619343,,,
3.47,-0.0005890699793263272,-0.0009401421186572213,-13.163736069601763,-0.0013436886604318644,-0.0002888635802822037,-0.00016430551165978733,,,,
3.48,0.0017901778402568292,0.004402404903654068,-14.271980842549482,0.00029229605016186153,-0.0013610351785860303,-0.00025718352705428034,89924.28726461658,,,
3.49,-0.003137202785259789,-0.002417418862969172,-15.223927830443413,-7.686582648312624e-06,0.0002561628693916321,0.00020285848750849707,,,,
3.5,-0.003853970418483852,0.004059809883685933,-16.16620420854297,0.0017051520401250696,-0.001118565148896977,-0.000920577935443611,89863.2666211829,33.49861076853405,-99.33760695954281,999.1437041819007
3.5100000000000002,0.0012422615493796274,6.902297667106942e-05,-17.04532299815406,-0.00016708707438797392,0.0020154170738059555,0.0003619461913168772,,,,
3.52,0.003259640534423003,0.0008411539165197821,-17.914164146128456,-0.0002617617166045586,0.0016979944912674247,-0.002523723801349833,89803.6774648907,,,
3.5300000000000002,0.0007402883707662718,0.004509378607548726,-18.763027342079074,0.001826570203461831,0.0012278134097268786,0.0008408343779124202,,,,
3.54,0.0014679150850537143,-0.004036115782393124,-19.603462389002747,0.0007098775632176233,0.0004408922393611505,0.0002110752938921014,89742.52105959678,,,
3.5500000000000003,0.0022636241338597957,-0.002112200948187729,-20.373922420875477,-0.001526614167905395,0.0010673048431239542,0.0011084576213078114,,,,
3.56,0.0017673938015942638,-0.002488451682192554,-21.132667836269913,-0.0011476425314510459,0.0019884270602428516,0.0015311462381244637,89682.12837111953,,,
3.5700000000000003,-0.0024569937211074617,0.003947211831309644,-21.90580962463341,0.0010889794166952067,-0.0013188177060595536,0.0013111419251708094,,,,
3.58,-0.0007531630240195183,-0.005699780965590918,-22.67015927737125,-0.0007373261105875216,-0.00021423006782406092,-0.001045336525889841,89621.73871058685,,,
3.59,0.0010849930277884682,-0.0041319561453331405,-23.15643033205167,-0.0008142841702643421,0.0013640799925751272,-0.0004910915665499689,,,,
3.6,-0.0006961312266904064,0.003247859988431126,-23.621876084534215,-1.9841004799395326e-05,-0.00034287943083699215,0.0006878575653836346,89561.4730434831,33.49865751242088,-99.33760988078349,1024.3514495360735
3.61,0.002939220131500337,-0.004339037423838215,-24.083719745884522,-0.0004622308856001333,-0.0011163074047567554,-0.0011973388554803498,,,,
3.62,-0.00531619377470094,0.005944236257781319,-24.5443354649921,-0.0008413384542768984,0.0018191764876054933,-0.0006438094944819805,89502.05466087803,,,
3.63,0.0003310325647743951,-0.007492848382659706,-25.19672876981267,-0.0007055637914766256,0.0006159109586523437,0.0004895179446265464,,,,
3.64,-0.004688275817209451,0.0012952057498068043,-25.85710631607631,-0.00044775829210052154,0.0003011791338479387,0.00027383852297116403,89442.59036452547,,,
3.65,0.0033080339146618317,0.0005318652369508898,-26.490420952013636,-0.0008944870250606547,0.00035534604678946367,0.001480905608680235,,,,
3.66,-0.0027588679002970265,-0.00013821496300391435,-27.111676069478477,-0.0014731984824939497,0.0006011777864715101,-0.0013139909008616085,89381.18295188631,,,
3.67,0.0007296055340840818,-0.0046937258704412696,-27.966172221753876,0.0010483324668329112,-0.0004879345236297567,0.00040468672740393545,,,,
3.68,-0.0005319729631189953,0.004061953078401028,-28.839514206933345,-0.0004686894334683667,0.0003120921745620615,-0.002222885323922062,89322.01432093486,,,
3.69,0.003512757695634669,0.0008535641030134131,-29.633008675964863,-0.0010975146191618066,-0.001566286792535872,0.002170737194476478,,,,
3.7,-0.0008620339049297861,0.0010927397844194468,-30.39830810029292,0.0013585823743944671,0.0010516575208260848,-0.0004254313513395621,89262.94333150978,33.498574166284484,-99.33759896804054,1055.781991475019
3.71,-0.004951856882881592,0.004287674449463026,-30.906814897670245,0.0009580550491535318,0.001201488891409868,-0.0011013805873060854,,,,
3.72,-0.002542977904313117,0.003190236257768379,-31.381777576951933,-0.0004667630844235657,-0.000675563222811234,0.00010483683933569933,89203.24840903678,,,
3.73,0.0031338843869317752,-0.0031316628374713036,-31.785576718457918,0.00022076303469848428,-7.633650670053709e-05,-0.0006756758310326748,,,,
3.74,0.00010658916601682335,0.0011717567114518427,-32.171501190438946,-0.0011107004572892619,-0.0002222285223046377,0.0007785442242723306,89143.31232817112,,,
3.75,-0.0035669571431044245,-0.000944484356186332,-32.493072666765684,0.0007345878043646157,-0.0005893435453413109,0.0003829427973816648,,,,
3.7600000000000002,-0.002547353137596693,0.0035417074053982005,-32.81169913341995,-0.0004136939054252375,-0.0007050976809748635,0.0004972609620217473,89085.04200072263,,,
3.77,-0.00020322423070626725,0.0031489672692524276,-33.06086322625438,0.000531230757184472,-0.0009878797040335124,0.0013458704861428502,,,,
3.7800000000000002,0.0021835296012337937,0.001797678456389182,-33.319297324405774,0.00034283048371723464,-0.0007667106243723364,0.001284532150416468,89026.35191712127,,,
3.79,0.004527756664270849,-0.0011704496626638796,-33.50479703213458,0.0013928271880396324,-0.0004071060071328709,0.0011209430148030356,,,,
3.8000000000000003,0.007678186849109832,-0.0028069399214994194,-33.68947112299333,-0.0014632127621711823,-2.5428731038404573e-05,-2.5161119889298357e-06,88967.40237410857,33.49856672654975,-99.3376036912526,1084.2695752892116
3.81,0.002118396576076209,-0.0018773917626458674,-33.815376252608246,-0.0009213506697132161,-0.0007510223886480998,-0.0003753347447322753,,,,
3.8200000000000003,-0.001876949716032421,-0.0005344332436163602,-33.93198071771233,-0.0006280962488305155,-0.0007831953904938869,0.00048391885515738345,88908.14759706732,,,
3.83,0.004410881847421954,0.0026138649746936826,-34.00339320757052,-0.0009053682791975421,-0.0001344089401342006,0.00046451251836454984,,,,
3.84,-0.006085064244175074,-0.0042839770125467375,-34.06262442037644,-0.0005498687515926086,-0.00075683889955076,0.0013093876273851052,88850.39061897123,,,
3.85,0.00450874332589002,-0.0010977420350367635,-34.099915001717534,-0.0013377332582445683,-0.0012895893431130925,-0.001723515114961294,,,,
3.86,-0.0008441069788087486,0.0005740679699029793,-34.137877870627115,0.0003819364733539776,-0.0011985604914242615,-0.0019032908099326637,88792.24193205619,,,
3.87,0.0004481643301165915,0.0036947984990921856,-34.184619391663986,-0.001545790719021701,-0.00040350470534091524,-0.0011675610897735602,,,,
3.88,-0.0015090532064687466,0.0028507328435118757,-34.23251832196919,-0.00034754729168230865,0.00023370813067956223,0.0006161209881435659,88733.63367991893,,,
3.89,0.0015579219148500318,0.0014777743290506871,-34.28819571955008,-0.00035190476171964623,0.0003326485450509072,0.0011653718053723865,,,,
3.9,-0.0029554392876375147,-0.0025892618592410804,-34.33170744589503,0.0009641399469030778,-0.0014189667462851702,-0.0009282350826500911,88674.79992730307,33.49866042455642,-99.33763244861441,1105.1450049966795
3.91,0.0015649298487113601,0.0007514601164698155,-34.661378446944845,5.159663683262664e-05,-8.633865804083707e-05,-0.0018567884834857938,,,,
3.92,-0.0007940664314533667,0.0017653455018961592,-34.620364461086815,0.0004979403626480225,-0.000304138077722138,-0.0006206864391629104,88616.50220063182,,,
3.93,0.0018787685280035162,-0.004050686681693297,-34.5890086735574,-0.0004851244945722081,0.0005941390282096793,0.001428494398948324,,,,
3.94,0.0008206891957398132,6.557119691635334e-05,-34.557505126260345,-0.0014335064355258105,-1.5989862357056788e-05,-0.0010123749887649015,88558.89207035747,,,
3.95,0.0016438370341183045,-0.001561399912008546,-34.51572934273233,0.0016481135578649243,-0.0005344242917957499,0.0014100676353309225,,,,
3.96,0.00118293618642987,-0.0026318188916581668,-34.47712968308847,-0.0005325669242060379,0.0009002655829993525,-0.0015811508591575426,88500.02371919555,,,
3.97,0.003167076120661791,0.004097103598821594,-34.44601259176437,0.0003842294468248091,0.0012659400766928982,-0.0011637343971420094,,,,
3.98,-0.0032402168268979184,0.0019678193081189583,-34.40797025265374,-0.0005973404030559923,-0.0006636656379704777,-0.0010199980938922835,88442.59402917308,,,
3.99,0.0036636540333260252,-0.0026272524128151944,-34.367222934209714,-0.0007375357203272666,-0.002500756091020949,0.0003460757082385729,,,,
4.0,0.0008912368501861152,-0.00091357725945005,-34.335712918359626,0.00040539192817478796,-0.0007034762103733,-0.0005955984109017756,88385.52441073362,33.498626209267144,-99.33756651686093,1151.9094060532068
4.01,0.003877320420424966,-0.0035407599943438157,-34.297244977588555,0.0023705516006461936,0.00175492698644841,-0.0017449499743697567,,,,
4.0200000000000005,-0.0005877666174753795,-0.001987027925572621,-34.26040560889951,0.0003711670139535845,-0.0002682429084839142,-7.76083956864119e-06,88328.87095945883,,,
4.03,0.003498959201021915,6.946475516004892e-05,-34.22646669877948,0.0013928459720595476,-0.00019335516797941137,0.0006889140427113405,,,,
4.04,0.0007637793379623728,0.004862142176696201,-34.18491077893081,-0.0013682512228939748,0.0011329721679030772,-0.0004262031154557769,88272.01793890582,,,
4.05,0.0036715114880435046,-0.002448929080267283,-34.14694821177416,0.00015988513897370455,-0.0012861900242552592,-0.0003880084208098837,,,,
4.0600000000000005,0.006347928295404771,-0.004836156099241873,-34.109093731782515,-0.0011784688022972714,0.00057757019122181,-0.0004239849854234419,88213.9810757794,,,
4.07,0.00029732589384508045,0.0028741264646801584,-34.07169548490134,8.052126390080577e-05,-0.00031920963491227086,-0.0005158940423878462,,,,
4.08,0.0025168099072196437,0.00039379608715303926,-34.03698480032954,-0.00020894978104025452,-0.00041806725974820433,0.0005531213692043319,88156.31345406579,,,
4.09,-0.0008727740182219649,-0.0046974405681497085,-34.00050689835553,-0.001078370343114177,-0.0003023601829501037,0.0007320745964835696,,,,
4.1,-0.0012347368330349294,0.0007526828280137277,-33.96828800998226,-0.0009516270945383,-0.0004150360102704309,0.0005014264824127734,88100.9534146079,33.49866708035695,-99.33762723012697,1159.3350595809827
4.11,-0.0011836038592939278,0.003874525567425558,-33.929443507288624,0.0012075668725988519,-0.00044103983973577365,-0.0005014406923671661,,,,
4.12,-0.0015524862848143128,0.002654058264075943,-33.897008611947484,0.00026054682981907897,-0.002107350876904828,0.0014582656320816711,88044.02600491882,,,
4.13,-6.322555605294279e-05,0.0026415154784648165,-33.86293831749703,0.002097720703293725,0.00031069955373800104,-0.00011516198317656238,,,,
4.14,0.004291793199457998,-0.0024110258045041593,-33.82467031880368,-0.00039051737975136057,0.0008352652520514396,-0.0007618781950682954,87988.0165998442,,,
4.15,-0.0028164833719799116,0.003273116274558273,-33.79231520734149,0.0007241804618701266,-8.845434600943397e-05,0.0015973524220503216,,,,
4.16,0.002088725424346277,-0.000771951152493408,-33.750303445873705,-0.00029044898730340435,0.00011876973472713048,0.0010425211391777965,87930.89149664946,,,
4.17,-0.0060076123355157435,0.0049524386942169235,-33.715656251815695,0.0010061726003441577,-0.00019769423105027616,0.0002380845503362407,,,,
4.18,-0.001445160520614843,0.003101037431232508,-33.68043253662024,-0.0001199316772674813,-0.00046668796442312017,5.913253510422201e-05,87874.87098590806,,,
4.19,0.0015221703148127934,0.003647857534972203,-33.64504093447302,0.0006228654205590351,0.0003474615876775633,0.0006814090327257352,,,,
4.2,-0.00022674047071436708,8.176577392320519e-05,-33.61290994862351,0.00023348409890687705,0.0001764446708661503,-0.0009263738467957875,87819.17465542867,33.49861194991876,-99.3376014265516,1188.9484155724424
4.21,-0.003808853318420196,0.001453011206010268,-33.58030406066493,0.000436318774597993,-0.0009936099757448988,-0.0012133795685991837,,,,
4.22,0.0021959108350573784,-0.0012425005715320165,-33.54172826193817,-0.001701811445221829,-0.00011681102449358726,0.001366076448436152,87764.59563213629,,,
4.23,-0.000725557430636041,0.0030414764679727565,-33.50887042594187,0.0001233506498203143,0.0008321263276414744,-0.0009401997254373897,,,,
4.24,0.003679663211741653,0.0038028007861949987,-33.47524429221478,0.00205718894571596,-0.0002189712740134121,-0.0010390429691945733,87707.3837084758,,,
4.25,-0.0011251518422943766,-0.0025350278258382945,-33.43463457695207,-0.0004540982702275574,8.212932970462932e-05,-8.593431623978709e-05,,,,
4.26,-0.002341905177859535,-0.0023510303471602103,-33.400739905800094,-0.0005149038648446597,0.00028326883297708015,0.0012836141614373457,87651.40098230056,,,
4.2700000000000005,0.0010551959464663138,-0.0009092842395553965,-33.364328839328486,-0.0004357489781938987,-0.0007389340304841599,-0.0005636568944317536,,,,
4.28,-0.0016242731024125978,0.00010936263805356777,-33.333188144301346,0.0003989463741819139,0.0002593353161797043,-0.0007306879335585691,87596.10320402743,,,
4.29,-0.00017289821678876426,-0.0016757695242812399,-33.3019900287051,-0.0020711995742378063,0.0006430800460114377,0.0006774582487651199,,,,
4.3,2.935790047891087e-05,0.007960901164461343,-33.266454167801705,-0.000192203537124932,0.001050572643324572,0.0016034882550950435,87540.23988836353,33.4986277780218,-99.33758460813954,1222.6413684602558
4.3100000000000005,-0.005381080720918866,0.005547017481235541,-33.23608433346009,0.0008387709215777114,0.0004765163270186417,0.001868420352858753,,,,
4.32,-0.007631482306916753,-0.003106538565181702,-33.20292722206977,-0.00037654713353346453,-0.0007852461591589609,-0.0003329758669256868,87485.41215952937,,,
4.33,0.010408069969420728,0.005651300846937206,-33.16975553450813,0.0009999177228211568,2.078039024415245e-05,0.001806271973686169,,,,
4.34,-0.004205521081037326,0.006343941780028915,-33.1356057869827,-0.00033471977928038174,0.00029235786445259493,-0.000425015677564197,87430.2500121397,,,
4.3500000000000005,0.0024003711240676655,-0.001081984984506346,-33.09926059809786,0.0015178534169034447,-0.0006671835665101497,0.00037612013173389985,,,,
4.36,0.002983434191808694,-0.003721330238021892,-33.06289779730065,-0.00012630610240676053,-0.0007644280674858471,0.001071343963697366,87376.56056644671,,,
4.37,-0.00552466096203473,-0.001071453695164763,-33.027610517066044,-0.0015928337440351472,-0.0014399255804834125,-0.0005005577377126504,,,,
4.38,-0.0011744260616477536,-0.0028615286509586085,-32.994620869184224,0.0002354124310625994,-0.0008054752250270661,0.0003682233579553576,87320.60596603254,,,
4.39,0.004361494645778468,0.004760834485872207,-32.957710063556895,-0.001375928239917567,-0.0009267640947360063,-0.00018567737607870353,,,,
4.4,-0.000671257049699019,-0.00030335208104452385,-32.93358187868581,-0.0005604266665150966,0.000400364385835234,-0.0001750258463129033,87265.87487782065,33.498615038621196,-99.33761433206371,1241.9524412200244
4.41,0.0010722298086242126,0.004454072651661168,-32.89376580353219,-0.001071346486477954,-0.0007197216044020503,0.0008433853445754891,,,,
4.42,-0.0005521699511103072,0.00019060580005648376,-32.86931803701353,-0.0010168550003547166,0.00038098761800102037,-0.00022920467814657944,87211.89888164093,,,
4.43,-0.00388556169134759,0.0020117663911457567,-32.828079088970874,-0.0022153779229196016,-0.000570565232175932,0.0005454070491902303,,,,
4.44,0.003982296367008997,0.0011431790761199637,-32.805210753873304,0.000714021014655496,0.00014046898231961474,0.0001992498531754083,87154.78479269595,,,
4.45,0.0030745899009336657,0.004448427484235282,-32.76241006050769,-0.0007735984780855334,0.00018444499570588168,-0.001064923883562673,,,,
4.46,0.00010569239735928021,0.007404602087910126,-32.73534032276876,-0.0006159943785864399,0.00025706207660933743,-0.0003100413083889217,87102.46085311113,,,
4.47,-0.009174920938133366,-0.001650534975035943,-32.698945009084355,-0.0005007886908570876,-0.0007676669905293888,0.0008155790166920728,,,,
4.48,-0.0053544651980688114,-0.00025905244371362857,-32.68281336818868,-0.0002964249541280146,0.00027168486435827686,-0.000807817886315307,87048.39008923048,,,
4.49,0.0011866933884767785,-0.0015286977431306,-32.64946091386934,0.0010781634896349182,-0.0010742059657117512,-0.0004429222237128962,,,,
4.5,-0.0017535348769752582,0.006381591533417453,-32.616424964983814,0.0005698007670755016,-0.00022703402639083394,-0.00044935650301617297,86993.74679915831,33.498622197987,-99.33762533879718,1251.8255210136663
4.51,-0.003402501750407011,-0.0018003246530691366,-32.5928458016309,-0.0003994632366580618,0.00020990079262734625,0.000622259589625162,,,,
4.5200000000000005,-0.0012630065907474075,0.000821929888055988,-32.566380784148826,-6.269230443637357e-05,0.0008676304430441933,-0.0014211619692353072,86938.68489554245,,,
4.53,0.0034974829088689915,0.004201406522102314,-32.533924517079406,0.0016565416844943645,-5.289245477295106e-05,-0.0003631232059280944,,,,
4.54,0.0019329374600892076,-0.0029299781401389297,-32.49915002655379,0.0019384246161985147,-0.00023604425171748554,-0.00013450545343525694,86886.59673030596,,,
4.55,-0.004406258372053931,0.0037780131242248762,-32.47423935250996,-0.0008975796093412644,0.00023368488676798335,-0.00021722690433536744,,,,
4.5600000000000005,0.002277493821967361,8.733974125164252e-05,-32.43276635226416,-0.0006952079809309478,-0.00014868304789728305,-0.00013861608191368733,86831.71922057308,,,
4.57,-0.0005703627108547618,-0.000265876682130079,-32.406718492285826,-4.1589919452741175e-05,0.00047961454039488255,-0.00016618592550849534,,,,
4.58,0.001677265145434781,-0.002286054016895627,-32.374199767987115,-0.0014571042469869316,0.0004515209298802979,-0.001022808441936337,86779.52276652413,,,
4.59,0.0026333617167669235,0.00815838735474838,-32.34833540473915,0.0005204760762703776,0.001971755344730372,0.000436698997133455,,,,
4.6000000000000005,-0.0015052464127864784,-0.006644024639132168,-32.31195516430593,0.0008918436381459831,-0.0014627292005163998,-0.0015002614809056071,86723.60753591453,33.498651076862615,-99.3376376943399,1299.215596069785
4.61,0.0001614681499439373,-0.005346553604362883,-32.28305570828776,-0.001418508052288022,-0.0009613227685376729,-0.001765841805539668,,,,
4.62,-0.0004060807126960192,0.0015362497819784563,-32.25704303734326,0.00032988636846392646,0.0006866750409010847,-0.0005141698640217707,86671.1109442342,,,
4.63,-0.0021806999136042993,-0.005734250128422748,-32.2265201810064,-0.0009388496975771071,0.0010520587500696212,-0.0012375222019196295,,,,
4.64,0.0017005688070494053,0.006571088911874816,-32.194104239390676,0.0010516557021652134,0.0002910572138570277,0.001800861561417541,86618.0316187973,,,
4.65,0.0038469749741638294,0.002096207034175487,-32.16386524930768,-0.00014753974971805912,0.0012220853465707234,0.0003736062591214723,,,,
4.66,0.001778798878857397,-0.0030832979553911256,-32.133589655762364,-0.0005786657220595855,-0.0008480373936634609,-0.0008054518281445437,86565.19701893792,,,
4.67,0.001211146673097157,0.0036483945481679456,-32.09784654187529,-0.0013117746469889773,-0.00029641805913996696,0.00014963364225200511,,,,
4.68,-0.0020155938184317577,-0.004919212321162333,-32.07012566015417,0.0001957033871712585,0.00013816558616673165,0.00035736348037824367,86511.72415894375,,,
4.69,-0.0028063419034574147,0.0034515406711715896,-32.05252209689781,-0.00014674121836923723,0.0010436138495380047,0.00153991901695573,,,,
4.7,0.0004901422346680107,0.0049183188488912885,-32.017615490569014,0.00014596699011975024,0.0010548582485637556,-0.0008485528984536916,86458.65862198077,33.4986245574966,-99.33763735500088,1318.4222573277298
4.71,-0.0020470374108350997,0.00013656273806402367,-31.997346582819898,-0.0018129555792622892,0.0003072362700379248,-0.001765492575308763,,,,
4.72,0.002732576518315426,0.0017334890666645282,-31.96991860764622,-0.0012646937610970176,-7.675187297347871e-05,-0.0008600590996708764,86407.21116957179,,,
4.73,0.003143262466657328,-0.006741643208634467,-31.9428586931274,0.00039734293958641563,0.0005541667086934017,-0.0010796893261470488,,,,
4.74,0.0039976084528031575,-0.0020201329011805677,-31.907226834872894,-0.000315276192754619,-0.0007640106911601527,-5.5434719839189576e-05,86354.719060884,,,
4.75,-0.0025260624532384267,-0.0019558860109049766,-31.881764178641845,-0.00016574757779075252,-0.0001783072448197422,-0.0010916553566235009,,,,
4.76,0.00030763883644512925,0.0018330752929206105,-31.852167358393345,0.000948275923916612,-0.000837967799096386,0.001090041705515926,86301.11571002722,,,
4.7700000000000005,0.003961964880507282,-0.00048587110222711335,-31.82415686386711,-0.00035143051451776885,-0.0011554318384256726,0.0017786748201424776,,,,
4.78,-0.005911203835039855,0.0018475641247688117,-31.78835719925956,-0.0007402673688099578,0.0008430549424379292,0.0004003262844275056,86248.17923442443,,,
4.79,0.0017382480540676926,0.0008511185247084321,-31.75672835562323,-0.001353605411753853,-0.0018216129085679908,-0.0011950100553653838,,,,
4.8,-0.001725917171200384,0.003334455743888752,-31.734093017092246,-0.0001635766939137534,0.0021248155866661414,0.0002971902273075866,86196.17800587894,33.49861655532893,-99.33762931946214,1353.3497882566473
4.8100000000000005,-0.0061502258288910665,0.001811072597974026,-31.700938400785752,-0.0011344308166610084,0.0016433424124614104,-0.001769480064446589,,,,
4.82,0.0023801751835463734,-0.006012489137499393,-31.673243360641923,0.00016036357246840063,-6.198548120619912e-06,-0.00012046658408321571,86143.62722097748,,,
4.83,0.0033495568513589227,-0.0003255872152709822,-31.650830196186707,-0.00014930999098403103,0.0005604946392463407,0.0004390106359094304,,,,
4.84,0.005372197950591174,7.998107763269914e-05,-31.62344742362987,0.00019659031957215114,0.0007173520591293699,0.0003029555746771853,86091.5232599241,,,
4.8500000000000005,0.00185936505810692,-0.0020892836327616746,-31.588705920252792,-0.00017982302061168515,0.0016574947407796217,-0.00042739995410567204,,,,
4.86,0.0060249659033323145,0.003891407482997028,-31.560187230083386,-0.0002539148686377037,0.0005119845137313945,-0.0015164808764112788,86041.53230301106,,,
4.87,-0.0020261792620120704,0.003576708547463815,-31.530866612092595,0.00027279558575939107,-0.0006435273713939064,-0.0011657625049310513,,,,
4.88,0.005324783071545605,-0.003881341699091612,-31.501490497215855,-0.001274149974931435,-0.0021607144187664896,-0.00010093508844956237,85989.42385705198,,,
4.89,-0.0030119430636495266,-0.0038420747030439716,-31.472386026084834,0.0009377046578798378,0.001110934382479097,0.00015010565409061288,,,,
4.9,0.001995450771349645,0.00016808542830204737,-31.44890219289169,-0.0009166583988363228,0.0014279533433475791,-0.00036872383506430357,85937.3368960838,33.49867172021467,-99.3375936055248,1361.0970400672784
4.91,0.00045246026998565245,0.004183530483153687,-31.42149656870011,0.000370606321111687,0.0010348105198187741,0.001242825448120745,,,,
4.92,0.002496674001899077,0.0012103980620188706,-31.40308621703027,0.002302829432704856,0.0010320600024488888,-0.0008136417358955781,85884.08449685262,,,
4.93,-0.005780292178847185,-0.0015945075860017573,-31.374340913641067,-0.000623631375259732,0.00033788594487453973,2.226582908234058e-05,,,,
4.94,0.0020942275773383357,0.0024867298657980535,-31.34918674920717,0.0011256092698928636,-0.0007592505848095356,-0.0014293778647381068,85833.72444557551,,,
4.95,-0.0015040978391450376,-0.003001736248574101,-31.322874044014338,0.0009215896516191049,0.0001422442957189452,0.000605934649318194,,,,
4.96,0.00026830624496582616,-0.007558533404709566,-31.29052578646975,0.0027508723002197394,0.00016248312977116923,-0.001119607976565218,85782.52737858797,,,
4.97,-0.0014488098730629925,0.00020981298461801473,-31.2641027716889,-0.00035738788581228444,-0.0006416645652971592,0.00129923439635684,,,,
4.98,-0.003699449020380063,0.0013716061728977255,-31.239451244007473,-0.0009740367023347024,0.0002580229269545263,-0.00178705392591174,85731.70402008256,,,
4.99,-0.006398235484655636,0.0001196496516339956,-31.209549263740925,-0.0006836468674244914,-0.0002348886795374309,-0.00031797317843583424,,,,
5.0,0.0009579622451479985,0.0020756684996827684,-31.183902172456676,-0.001143353451985706,-0.0007955776936854223,-0.0003623671222240476,85679.63771654456,33.49860848521115,-99.33761963330379,1393.9857418294814
5.01,0.003903086800571338,0.0026370444582702627,-31.156440345572097,-0.00011860802234443816,-0.00098275208993322,0.001566269858806053,,,,
5.0200000000000005,0.004734002585562357,0.003554648421065562,-31.123391755739142,0.0003520493700404504,-0.0005445630829753776,0.0017736905528021611,85628.35396905201,,,
5.03,3.843929642288726e-06,0.0035468218889089303,-31.102732609004622,6.556126493455101e-05,0.0011897252214458265,2.0897282898377958e-05,,,,
5.04,-0.00015549423386540434,0.0047650416219523735,-31.06932154530627,-0.00021656544209371206,-0.0011578525927988075,0.0017720305878054482,85578.08613861786,,,
5.05,0.0013786335756990334,-0.0002093013220824837,-31.051475745911137,-0.0005541873691363427,-0.0009914966956783863,-0.0006812127997113134,,,,
5.0600000000000005,0.006426156657476638,0.002238134791323464,-31.031747493858237,0.0013754572147545848,-0.0013494089190291781,0.0009420517985194704,85527.64195628498,,,
5.07,-0.0022586921176146694,0.005547098220691623,-31.010745101293068,0.000824035651601042,-0.00019853475730789697,-0.0007929255434689108,,,,
5.08,-0.0011591416424178407,-0.0013513244099503411,-30.977629118279097,1.0000767303645857e-06,-0.001233846569249548,-0.000977327350824993,85477.50032416965,,,
5.09,-0.0013243795553607828,0.0006339160854349752,-30.954372133639286,-0.001283738002243407,0.000555099356412075,0.0001472202631921789,,,,
5.1000000000000005,0.0018405838367453653,0.002546326833931006,-30.928444763393014,-0.0005436843480602871,-0.0005732313318028329,-0.0006166500894451304,85426.46165466917,33.49863207830583,-99.33757912068971,1415.082237820461
5.11,-0.006869044373263393,0.004298307501688501,-30.90025811433975,-0.00016407391507473792,-0.0006480603891776187,-0.0003731846336469715,,,,
5.12,0.0009514944784321545,-0.0039151601654887225,-30.86641718583966,0.0003255067665497485,-0.0008071830269944023,0.0006124861647373671,85376.17516128902,,,
5.13,0.0030579697210568113,-0.0004525065983224063,-30.841631451877074,0.00123317581711089,-0.0012778866522252384,-0.0011892365877364515,,,,
5.14,-0.0006465571047735401,0.002005076373206675,-30.816237364928742,-0.00018719646900837396,-0.0002975777749905631,-0.0007522611772897599,85325.27102274196,,,
5.15,0.0025563095909211775,0.0024506802883873142,-30.79070201758858,0.0010431156395206461,-0.0007680961583113906,-0.00021849071722849234,,,,
5.16,-0.002554785039001909,-0.0022476403263702776,-30.766754931738333,-5.166197581242448e-05,-0.00046352897653759867,-0.0008359586082736532,85275.27913211039,,,
5.17,-0.0013723823800798707,0.008270655078210365,-30.742203331829717,-0.00021200451214637494,-0.0017609068726964507,-0.0008694926360326872,,,,
5.18,0.001250184968669218,0.001415242688934138,-30.710305469967718,-0.0008076302033957158,-2.4838497227908483e-05,-0.00048108296169923443,85225.69528043129,,,
5.19,0.003849877527934315,0.0019351735265182718,-30.686436794418118,-0.0008724141768123263,0.0007958569393624094,-0.0007041310715291935,,,,
5.2,-0.0025472845435726647,-0.0005382062027427391,-30.66687914490979,0.00025572350267050783,-0.0003190096660090641,0.00033352036061080035,85174.19832665367,33.49858397801775,-99.33764667462933,1434.0522138385447
5.21,0.0029426130342987966,0.006074304543334074,-30.64823069086792,0.0018778500120947097,0.0008450357282518821,-0.00186296226654865,,,,
5.22,0.00020552659203109893,0.004301226011667209,-30.62387364712413,0.0019143873886744115,0.001748731172322307,0.0010864688517211321,85126.41508509764,,,
5.23,-0.004972356323965033,-0.0005045500856550094,-30.602489519949422,0.0012290930277292138,-0.00037624521638319737,0.002148309551868147,,,,
5.24,-0.001695472286877304,0.0061767699862940685,-30.583507146925342,0.0007563114009176317,0.0015109715212137682,-0.00028930535523980714,85075.0117281364,,,
5.25,-0.0031549258411398278,-0.001162262843237067,-30.546997941440985,-0.0008296047634020887,0.0008024783290799957,-0.0009099839230018727,,,,
5.26,0.006905082450191955,-0.0024754019516641983,-30.522860430450205,-0.0009389567890687949,0.0021119095631432117,-0.0008475393664335964,85026.45592632011,,,
5.2700000000000005,0.0032027159306142012,-0.006128921686572877,-30.499979969525565,-0.0006267497986634966,0.00039323966937167667,0.0003443815839266301,,,,
5.28,-0.0006338975696806151,0.0008399774353049089,-30.473435636821147,-0.0017720527469008425,-0.0005879853807342049,0.0014068346355256603,84977.26717681628,,,
5.29,-0.0023196833946082765,0.00580875657244347,-30.44609387657924,0.002205749538488768,-0.000319892622113604,-0.0003488129720713412,,,,
5.3,-0.004008851278100459,-0.0012252594207580185,-30.42454366125685,-0.0002992960867988816,0.0005052127729772797,0.0004373036848409031,84926.78429686138,33.498654788944194,-99.33755007746791,1466.659557513863
5.3100000000000005,0.0007020810686510225,0.0033893173838340424,-30.396321629799722,0.00018369346014631452,-0.0010309170893804277,0.00011411655344439123,,,,
5.32,-0.0010081759094754015,-0.0031727068371095036,-30.372071927319748,-0.0016940701997656175,-0.000731253880198854,-0.0009141331469866648,84876.85308663841,,,
5.33,0.0013752581437318605,-0.00011485615955028753,-30.34784236107506,0.0005139579353720617,0.0005050601310905333,0.0002470912153887594,,,,
5.34,-0.0008236700745470534,0.0006782669598882665,-30.318915977569837,-0.0005566345693169753,0.0013924886150379569,-0.0005793078408977739,84828.89281563117,,,
5.3500000000000005,-0.005671554241183937,-0.00017274400252792666,-30.29580024357433,-0.000798830380234903,6.79875064562407e-05,3.2393374019389244e-05,,,,
5.36,0.006687234729931548,0.00042321864227869,-30.272798264546925,-0.00037524127859667314,-0.0003124524116534104,0.000851665408061724,84779.63488417062,,,
5.37,0.000911514343980287,0.006606776878682583,-30.253389859374895,-0.00019872540765073093,-0.0008708449808474905,5.1958617304056816e-05,,,,
5.38,0.0007334655945216202,0.0010873124603497186,-30.234801402628946,0.0020884825249581932,-0.0024960288876300332,0.0015203418322362152,84730.69709495181,,,
5.39,0.002901892522604077,-0.0015463844635143257,-30.211181142330886,-0.0005866510195292466,0.0016224456221179983,-0.0007353132477262308,,,,
5.4,-0.00340904485364687,0.006050296254194194,-30.182569660854686,-0.0004801024081105124,-0.0011698510814285364,-0.0004656398559332209,84681.61103785067,33.49861485343915,-99.33760432099902,1487.1696778372252
5.41,0.004038797118388791,0.0016118665496263293,-30.166388451007865,-0.0006819174258012689,0.00044846005763519585,-0.0007650844538874338,,,,
5.42,-0.0012623381609855409,-0.0055502231157809655,-30.133618949054693,0.000640539716922715,3.029924016569921e-05,-0.0002896151733306802,84632.04608333716,,,
5.43,0.0008139081951796739,0.002189949640895639,-30.111334049821313,-0.0008199803817552136,-8.692742998779329e-05,0.0002598050733117536,,,,
5.44,-0.0016570550945796685,0.0007980877154517669,-30.08205933074483,0.000820564534819111,-0.00045794815673084473,-2.6287869460141045e-05,84584.37254842537,,,
5.45,-0.001625549068889755,-0.0018165431932458216,-30.055825034686777,0.0014543538386405706,-0.0005586667275643762,0.00011833770322721087,,,,
5.46,0.0011767065150600897,0.0026978300191243822,-30.032097422510255,0.0018114746979581687,-0.0010103036629245232,-0.001545944738993225,84534.3938773766,,,
5.47,-0.005167089842359146,0.004267756363125617,-30.008140990574745,-0.0017671116506995513,0.001420536835195545,-0.0010949025033642691,,,,
5.48,-0.0025785600358391595,-0.0023996871391395985,-29.982659195223444,-0.0007304050450693459,-3.1529346987505985e-05,-0.00018798015966323183,84486.90881864051,,,
5.49,0.0013805506182773737,0.0013477394163135445,-29.96042242041106,1.3784335932398998e-05,0.0017362216598023634,0.0016292101262783865,,,,
5.5,0.00021055623608802994,0.0022176332074651463,-29.939595181047792,-0.0008434855114655748,-0.0015110684668768171,0.0024484731269051783,84438.8555195507,33.49858922761413,-99.33760239759431,1510.657988163929
5.51,0.004905932389612622,-0.0004201991071625412,-29.919487836785642,-0.0016563638851653988,0.00031636922946137665,0.0001306943923047833,,,,
5.5200000000000005,0.004105363559980427,-0.001478264116646072,-29.895824568751802,0.0013514685322441188,0.000920361673512475,-0.0008137391009866149,84390.6041244405,,,
5.53,0.0023669412699159134,-0.0014043886729950199,-29.880297286106,-0.0008951106596018275,-0.0005416520997158481,0.000564431073395345,,,,
5.54,-0.0005095557504889007,-0.007051317510352542,-29.848530135932812,-0.0003794467237881131,6.158153661962517e-05,0.0005852985378635715,84342.97674417222,,,
5.55,0.0014360347892218535,0.004277579938620612,-29.826795065197555,-0.0008589164581528718,0.000427838647655612,0.0008601787973828607,,,,
5.5600000000000005,0.0017424359869691304,-0.0005324322233292021,-29.799070181260273,-0.0006785378687645265,0.001189911017281128,-0.0010292973829572197,84294.51348233348,,,
5.57,0.001110893411513954,0.002330806009136123,-29.77164946227932,-0.00020920782968726355,-0.0002548646960663594,2.6749190524329922e-05,,,,
5.58,-0.0002978046848255783,-0.00036079774200173284,-29.752264250821096,1.2394515497383431e-05,-0.0022161698693367203,-0.0016271593764023108,84247.34186756708,,,
5.59,-0.0016487757235753942,-0.0022121411318687108,-29.729906599729535,0.0012179971304129777,0.0008193125138181112,-0.0017815077026500023,,,,
5.6000000000000005,-0.0030324597102689187,-0.0009710472372301894,-29.713242896701274,-0.0005155490065303363,-0.00043381796904488543,0.00039628509037537154,84198.9620641698,33.498625695524936,-99.33757289800644,1535.0265606590772
5.61,-0.0021875550815242447,-0.0009060434482176512,-29.691693570996918,0.001093782156303075,-0.0012177883990354724,0.001735255079409327,,,,
5.62,-0.00010635836194247338,0.0016739636387663086,-29.67938594870858,-6.175332892653078e-05,0.0012125928748764545,-0.0012189273185972665,84151.0591539048,,,
5.63,-0.001903000650182445,-0.0009443418265195108,-29.6540102024355,-0.001173189187203104,-0.00018335689341287306,0.00015482604972839387,,,,
5.64,-0.004648349714430616,-0.0033317196242964066,-29.629021556916513,-5.993270019644341e-06,0.0008496093751882222,-0.0009290781747525803,84102.34961761793,,,
5.65,-0.0010060798577402024,0.0009649652386157628,-29.59942424217618,-0.001095949034504622,-0.0004302513283016041,0.0003627727633034415,,,,
5.66,0.002791441766140312,-0.0008575850172925258,-29.592028303807336,-0.0002090463080231594,-0.0005630954578402673,0.00011536765234738887,84054.99085174057,,,
5.67,-2.2490873536531873e-05,-0.0004970469276651593,-29.559698048265,-0.0016116981863509314,0.00010213517201527667,-0.0001942536734084052,,,,
5.68,-0.0017808178405056979,-0.000534846855862337,-29.539658133766977,-0.00023478406116286092,-0.001231334022197115,-0.0010931630599198112,84008.42845514316,,,
5.69,0.002691714174783982,0.0028048069421963556,-29.51218853108482,0.0013845969790630191,-0.0013299694795916675,-0.0013529567315161656,,,,
5.7,-0.0034826411567222292,0.0012831050552929316,-29.495823180552737,-0.00033677538440041876,0.00020037787630060723,-0.00013561458391583706,83961.23062356142,33.498627263978165,-99.33758045895647,1561.1942153672428
5.71,-0.0028753553710340256,0.004468348361102074,-29.464723143481276,0.0011074860506623044,0.0010298800183509206,-0.000726665826500319,,,,
5.72,0.0006246907214955172,0.001667522338584654,-29.442325708802926,0.001011037781169294,-0.000498104816605403,0.0010386562132420096,83912.72369709011,,,
5.73,-0.0020377193198037324,-0.0005469486057834107,-29.42147115239758,-0.0002601701382590726,-0.001333030254164613,-0.0005914916824873077,,,,
5.74,-0.0014275940389924598,0.0008267770219812767,-29.400581967479386,-0.002233738170377725,0.0011005206498798487,0.0008515431017088604,83866.66878154974,,,
5.75,-0.002480638977109961,-0.0009499411210371457,-29.379903242158946,0.0014391596547881384,0.0003229788422407269,0.0003628393977133788,,,,
5.76,0.00025452579886429884,-2.1017475323036667e-05,-29.364009168803264,0.0008696405410001627,-0.001004615010371106,0.0008588996715467799,83819.34163376011,,,
5.7700000000000005,0.004660187502451411,-0.0017129619571580458,-29.344864843235108,0.0006592471543637439,-0.00024192872213999324,-0.00026578755162621185,,,,
5.78,-0.0029286863308933893,-0.0011970756009854824,-29.32797655010362,-0.0017099510964778404,-0.0003537546888821935,0.00015344834055246168,83771.60758550004,,,
5.79,0.003964030822735289,0.00141624434441254,-29.300784960066366,-0.0006871266208985944,0.0010108874941144833,0.0019149661550845124,,,,
5.8,-5.139572527404416e-06,0.005050764021186975,-29.2811471229718,-0.001017595646427027,0.00041831935764044596,0.000937334413362613,83725.13502401879,33.498612210231364,-99.33763879300389,1579.5339218018862
5.8100000000000005,0.006367388308839068,-0.005502493485350329,-29.257009664063553,-0.00022324745120085314,-0.0002451703815064676,-0.0010046834013200932,,,,
5.82,-0.0016028144005142432,0.0022909822055858543,-29.236876072685035,-0.0009362494518672268,0.0009392823682096799,0.0014199990473695297,83679.90662484552,,,
5.83,-0.0008707193418689332,-0.0039324871549912,-29.210808841964866,-0.00043824644937534454,-0.0012023945348969285,-0.00022570430461742795,,,,
5.84,-0.0016515669000690852,-0.0034778320083678313,-29.190810782997723,0.0002742261864782594,-0.0008499143847126688,0.0021591879375021596,83632.74142490886,,,
5.8500000000000005,-0.001646450714565724,0.0016472403250086807,-29.16556704586637,0.0011059447866054966,0.0006775566487261114,0.0007406612646648524,,,,
5.86,0.0007324697022166196,0.004853203148884801,-29.155679074205025,0.0008306432432255388,0.0007627095444037826,0.00027997123226238885,83587.27809206596,,,
5.87,0.0012311145299162861,0.0008773566431364123,-29.130654243346584,0.0010362292869363476,-6.376866930868985e-05,0.001234008912949505,,,,
5.88,-0.000580547312609243,0.0046690932607036635,-29.11142496298802,-0.0004231409562640013,-0.0010186269878141412,0.0007761612710720239,83538.9910249548,,,
5.89,0.0004692653674045545,-0.00016935650573500922,-29.097264401503953,-9.468473643789422e-05,0.0012429002331310064,0.0020228024891880926,,,,
5.9,0.00046065413594645316,-0.003787198647556135,-29.07519559450638,-0.0008557322258667538,0.00012784185792991926,-0.0010879000839287578,83492.287929366,33.49866119957683,-99.33761102349287,1600.8106354267359
5.91,-0.005240099582279888,0.00012561595331589385,-29.04742323288584,0.0011886903930174173,0.002525238210494413,0.0007711570341728845,,,,
5.92,0.008055667336187382,0.00026682238568912625,-29.024721772973926,0.0014847001159639024,0.0012304474841669793,0.0003813197525465611,83447.51663639909,,,
5.93,0.000304422209154243,-0.002372483494537451,-29.004127099548636,0.0002202969689931457,-0.0003105667360520578,-0.001096605440794506,,,,
5.94,-0.0033322630140425464,0.0014857633685097362,-28.985110681948346,-0.0003507366736119683,0.0003307514269933679,0.0003919722177272249,83401.38596436127,,,
5.95,0.003896167445209195,0.005465555361296914,-28.961032633599814,0.0006794969347931159,0.0018539948339236073,-0.0003625026173519745,,,,
5.96,-0.0011238124028347801,0.0011612955916053907,-28.95068997762975,0.0010242972215216755,-0.0008961638833393285,-0.0016587646530538485,83354.1632446969,,,
5.97,-0.0011378261963443206,-0.00020973882130388458,-28.93054598366643,0.0006544164941231709,0.0007811979036616891,-0.0010105653466876128,,,,
5.98,-0.00014490181891940209,-0.002441272438218259,-28.91457368342402,-6.76396024280384e-05,-0.0017172762850859123,0.0004221636304650977,83309.28008376669,,,
5.99,0.0019995877774987157,0.004639196290539265,-28.890021881250057,-0.0012741814843611112,-0.0009886574547540293,-0.001274252540724372,,,,
6.0,-0.0027263317770613265,-0.0030518900939073166,-28.870633629010015,0.0006087064971417925,0.0005294110343779681,-0.00045958147822291925,83263.36972853473,33.49862482391063,-99.33762790082297,1631.0988722223435
6.01,-0.0029370223576578483,-0.001952883918553436,-28.841649512457806,-0.0006278409362565463,-0.000962375038096572,-0.0006061953830581009,,,,
6.0200000000000005,0.001519484582717182,0.0041974976981496905,-28.828052601109146,-0.0004405113286418128,0.0011176073767760598,0.0002265370378388338,83218.6378776942,,,
6.03,-0.004183778936904821,0.0016558050981802677,-28.80369999341471,0.00048704288465024887,0.0011590009466158394,-0.00010613165269184426,,,,
6.04,-0.001442067571060884,-0.001424571213137099,-28.78583880141672,-0.0009795815177099064,-0.0005050781582577708,-0.000253080408840164,83172.64681906151,,,
6.05,0.0009151033874368287,0.00219920444636517,-28.763660764245014,-0.00015946783307891789,-0.0020167074654114376,0.0013433265317967693,,,,
6.0600000000000005,0.0022067590597906516,0.0027806344188497753,-28.748423289483505,9.384814888166249e-05,0.0011336048120456784,-0.0014217300728736578,83125.53391972663,,,
6.07,0.001137765855039167,0.006184085513234442,-28.72874479651749,0.002081402081813911,0.0013744309030717576,0.002002426260194347,,,,
6.08,-0.002338359815961391,-0.009630614399057151,-28.711679739964357,0.002628406334997002,0.001059396987769083,0.0013438575617576106,83080.91685787898,,,
6.09,-0.004161819350683194,0.001456862307927227,-28.694528793845823,-0.0007365582621932746,0.0008156368078127019,0.0016583318373637331,,,,
6.1000000000000005,-0.00262289984386152,-0.00017518210803343584,-28.67026066765368,0.0001612765862812332,0.000966612688116383,-0.001316795013505066,83035.33172473422,33.498608252653064,-99.33761664580999,1641.8755876731866
6.11,-0.0013939285245335804,-0.0020611160212600363,-28.652759651166726,-0.00021010009450113428,0.0004029723418429601,-0.002321083717234812,,,,
6.12,0.002712502148057213,0.0012343971627458467,-28.630656355510915,-0.001570128095325625,-0.0003131280324304396,0.00030354030539862575,82990.98978922045,,,
6.13,0.004356486744986178,-0.0043393490364496065,-28.61316374391778,0.001167076148297059,0.000344908587042731,-0.0008555566257981314,,,,
6.140000000000001,-0.004600803593141312,-0.0008225706421684498,-28.591310040831175,6.833035014726411e-05,0.0004939115344512021,-0.00034434554095991583,82944.57681195605,,,
6.15,-0.0010664355409789753,0.0013257215788632138,-28.56971696286618,0.0013294545609229607,-0.00029613328548949426,1.4780741843713618e-05,,,,
6.16,0.001294573883600577,0.0030490451012152894,-28.54775730978221,-0.0006311039823138184,-0.0001853449728086999,0.0008404913993443846,82900.2792458837,,,
6.17,0.002971032633749161,-0.0016188348944048176,-28.530756860355876,0.0006705189281534835,0.0008076021148864681,-0.001559661337367577,,,,
6.18,0.0033311500787684156,-0.0014046448277908687,-28.520280987852956,0.0013693609598766214,-0.0008405681346075335,2.0544501063078634e-05,82855.2863281062,,,
6.19,-0.0025412541914304598,-0.008394158031289069,-28.491869131277372,0.000622508633805056,-0.0015959140022748465,0.0005919075681352852,,,,
6.2,0.005687808945982894,0.0036506446677457872,-28.47335070568308,-0.001110859440328069,-4.706582314604046e-05,-0.001675415099669959,82810.56340001158,33.498656671601566,-99.33754273934285,1664.5241140601356
6.21,-0.0017307694557067241,-0.0001773945122725702,-28.458901344709084,-0.00026766864465046564,0.0007355175562899197,0.0009439929340914027,,,,
6.22,0.0009248572021656417,0.0002869527654258849,-28.436474174001372,-0.002142526310216136,4.5107848586482624e-05,0.00018057214753077575,82765.25742256685,,,
6.23,-0.0023115085529769224,-0.004417355089641092,-28.419384529400485,0.0009860684902301845,0.0013778944778709693,-0.00018493328472946765,,,,
6.24,0.006903175136742282,-0.0021581288682603274,-28.39828724804582,0.0015472361816811064,-0.00026409394958733717,-9.562334969404167e-05,82721.14716681853,,,
6.25,-0.004137284203319474,0.0002333525561394013,-28.3804792883513,0.0005870998917894088,0.0005499210159930641,0.0002500262198105963,,,,
6.26,-0.0003262435250726743,-0.0007175213107023387,-28.36300251171269,0.0008713361305211002,1.647503370741561e-05,-0.0005218385535982183,82677.13749169062,,,
6.2700000000000005,-0.0029951677811183527,0.0008103526986505899,-28.34796555145471,-0.000869443937347511,0.0009650265873346577,-0.00043637348637028475,,,,
6.28,0.0029712995898039983,0.004873690779915478,-28.32424949758331,0.0013324055519592904,-0.0011686039657738902,0.0005853518769291641,82632.21529907468,,,
6.29,0.0016914434762335818,-0.0028751333881559486,-28.31129990583328,3.296900018174003e-05,-0.0018115263586484874,-0.0009111763819791778,,,,
6.3,0.0024982186103478074,0.0016622711663655302,-28.293263280744224,0.00114805227820853,-0.00030508147177274746,-0.00037217948339310873,82586.5224272049,33.49862224098785,-99.33757213531567,1690.3649967123188
6.3100000000000005,-0.0011503682423058673,0.002840465935990723,-28.27446918553209,0.00023194741066277417,-0.00018698153266436627,-0.000513935101251024,,,,
6.32,0.0037965035337991127,0.004355399599989051,-28.25559618095607,-0.00017592877975510012,-0.0008367494820939665,0.0023422468001599037,82541.28807971191,,,
6.33,-0.001093601137586441,-0.0001420912698036124,-28.226966895880107,0.0015584827914178088,-0.0008827845231867996,0.00043031458924896673,,,,
6.34,-0.0038383680514815144,-0.0028216665521138998,-28.208010319387338,0.0013381049339761591,-0.000281819540572642,0.0013818842733114905,82497.53728629257,,,
6.3500000000000005,0.0019773601734738955,-0.002260420718153483,-28.19513480521676,0.0022490621788009892,-0.002034815198741678,0.0011565049094371905,,,,
6.36,0.0037535889872970405,-0.004091610116051678,-28.174985508846383,-0.0004113106935946921,0.0005272049160663444,0.000751258470986045,82453.81866886788,,,
6.37,-0.0006285171402160086,0.004582831304503563,-28.160315782030118,-0.0012660129378675915,-0.001352107514203078,0.0013656554983668707,,,,
6.38,-0.0013099953134076102,-0.005243866515203531,-28.142852313336554,0.000847917513562787,0.00032375497670321596,-0.0009747785671396096,82411.19583535274,,,
6.390000000000001,-0.003579883349255786,-0.0011422852056099694,-28.123964767055437,0.0007521630284122971,0.0008543528907991643,-0.002125244109713945,,,,
6.4,0.00035296334263264955,0.0014010140872316205,-28.103662213573262,-0.00012603917138287717,0.0006816980953049176,-0.0002852020616005098,82366.34190429137,33.498623769788026,-99.33766692904315,1705.8339366179252
6.41,-0.0019189943200475248,-0.0011426929314497078,-28.092483121766616,0.001312417296410203,0.0004009123521836352,-0.001090228074178685,,,,
6.42,0.004420404609404525,-0.00517807530148414,-28.066007830664525,-0.0007277763450070881,-0.00025536657172987957,0.0009224024500844822,82323.69838334268,,,
6.43,-0.0013974209811072383,0.004899004373484256,-28.04367374616249,-0.00018417828764903115,0.002831734458966519,-0.0008052884831381445,,,,
6.44,-0.0012909950306147378,-0.00034557632220620616,-28.027258335655286,0.00016807164391645775,-0.00022113735743112156,0.0001702145777636839,82279.23149588367,,,
6.45,0.0023459224041682105,0.0005286679157529173,-28.009103723352425,-0.00010914705638435063,0.0006278877372161897,0.0021165856439599763,,,,
6.46,-0.0011946535999107439,-0.005280813406390218,-27.99246984875118,-0.00033118453693726455,0.0007897758001927149,-0.00010994897523689567,82235.41609057142,,,
6.47,-0.00028962846643360235,-0.003762520442452149,-27.972120674563225,0.0010942962375416212,-0.0013576968563784677,0.0004766851096181095,,,,
6.48,0.0043550578036459005,0.0009651221552713558,-27.957860988131603,0.000496248893552338,0.0008146541025492065,5.985915279285164e-05,82191.46441442038,,,
6.49,-0.0013166034635984964,0.0018212187433188803,-27.943343049980122,0.00020540463281950292,0.000889875123880712,0.00024976723586825426,,,,
6.5,0.004122217795460061,-0.0012624352488220302,-27.929902489179206,0.0007818514912313637,-0.000977260712538872,-0.000805592783126795,82148.87482441458,33.498605199655906,-99.33754912907379,1727.1178989522082
6.51,0.00015038720738813144,0.0020324394546110403,-27.908626035017164,-0.00039934121952864596,-0.0006019807432654714,0.0007547389826843348,,,,
6.5200000000000005,0.008251497588884675,-0.002135051165163775,-27.887533030726754,0.0011858855182163266,0.0009793071498995774,6.442415892791349e-05,82106.37675429799,,,
6.53,0.0032976732956519197,-0.0038463128895815774,-27.86844867448242,0.0008372401362518837,0.00036474082037469245,0.0010135615525959645,,,,
6.54,0.005071289549795354,-0.0012104735993559296,-27.85424784621066,0.0018209136537048877,0.0007230364784088474,-0.000824713676932951,82060.88177788732,,,
6.55,0.0017710167507689484,-0.002449560789938528,-27.834657650194657,0.0010638310952073534,-0.0006466571475756171,-0.00037525900533970835,,,,
6.5600000000000005,0.0019442133488960474,0.0004413171887610602,-27.820513024090992,0.001027349028766765,0.00023587661538868542,-0.0004169351068004693,82018.41688428083,,,
6.57,-0.0011890690962284873,0.002642639904299346,-27.800004768798935,-0.0001048689149270536,-0.0007976172304121922,-0.0004025736069980986,,,,
6.58,-0.0037799860529784484,7.847286591158056e-05,-27.782135152275263,0.0008564933671581645,-6.922183062446425e-05,0.0010584508402518597,81975.0846249051,,,
6.59,-0.0022977611757603387,-0.0004613979918295482,-27.776423913580224,0.0007317884811105065,0.0001734490939270931,0.0016156922746135493,,,,
6.6000000000000005,-0.003096641314906484,0.005018873856693628,-27.75455294277752,-0.0009829990186658207,-0.0010354307203746243,0.0010740089440247598,81932.9142804525,33.498609928756174,-99.3375548068694,1755.9132893187445
6.61,0.005979527119135169,0.006213259949627775,-27.731865584225567,-0.0015501735662197696,0.0008000383966879698,-0.0008754676977502696,,,,
6.62,-0.0029917880600474718,-0.003768886763412144,-27.716650333454755,-0.0013061729613756518,-0.0014054306882707401,0.00018606190471184446,81888.51468699083,,,
6.63,-0.001996599207852494,-0.0018114327955533443,-27.69644958298746,-0.000598701679595739,-0.00036168578608118353,-0.0005997561255858848,,,,
6.640000000000001,0.0013798460246119916,0.0014756529407197287,-27.673741501392207,0.0021438106298896755,0.00012511793903490103,0.0010886695582033971,81847.32964433481,,,
6.65,0.0009424859889937809,-0.00019218894771809124,-27.658365610362416,-0.0010705467349626935,-0.0011027686176242606,0.0005498962773703542,,,,
6.66,0.002076950483156243,-0.0015907258394542334,-27.640759828522,-0.0012347864072725597,0.00017239091035402095,0.0005520923677212042,81804.24954097558,,,
6.67,-0.0009934530002278811,-0.0011221297795963314,-27.632378961772268,-0.002865523701017335,-9.32238748325281e-05,0.00016091658017091024,,,,
6.68,0.0021654454342575524,-0.0013340569795113196,-27.61172042366665,0.0010518156737810563,6.005802799769326e-05,0.0004873698788328808,81761.2959260508,,,
6.69,0.0014791280859919036,0.0038304018838174014,-27.596998802631717,0.00046213341515262136,0.00013341502659308763,0.0007489602519344932,,,,
6.7,0.0016698506475771174,0.0010342017316077798,-27.57416757551167,-0.0006446119410174108,-0.00016577185155128228,-0.0004817598340064998,81718.11315274332,33.498612922249535,-99.33761544494688,1766.8756369629955
6.71,-0.002439524158309392,-0.0023251301646910988,-27.556349674549455,-0.00059384523030731,-0.00041788363903987594,-0.0009531006203333286,,,,
6.72,0.0020962184615284664,-0.007648773096803638,-27.54212129495054,-1.427206548757252e-05,-0.0007236860018246831,-9.751426362322305e-05,81677.58672724603,,,
6.73,0.003430117042909662,0.001915322777353082,-27.51984980642857,-0.00016595412151112582,-0.002161957839272159,-2.9394683280309926e-05,,,,
6.74,0.0009069728167968638,-0.0037178876124902027,-27.50215489326371,-0.0006495901076067358,0.000996858749612146,-0.001582056970952521,81633.24977709336,,,
6.75,-0.00036888495889731115,-0.002146962698988068,-27.48579945527905,7.039489917352697e-05,0.0009353498784816449,0.00032741553625792886,,,,
6.76,-0.00444620585796061,0.0002833220108050738,-27.47713417772817,-0.0012216041654296507,0.0004455762903943182,-0.0018576811845766377,81590.8984768748,,,
6.7700000000000005,0.0009896574679724567,0.0010078584236950646,-27.460857433071517,0.00028790971058146583,0.002119530891987611,0.000720607908494961,,,,
6.78,-0.004414712022358949,-0.0003395323544877621,-27.443968088506303,-0.0006651317269748759,0.0008910599385664441,-0.0003127431635176117,81549.84410193346,,,
6.79,0.0007360318357606911,0.002221785725791611,-27.433771406658597,0.0017079531667424915,-0.0009807118973607983,-0.0002045096222534042,,,,
6.8,0.0024763851973053272,0.005770699525550205,-27.411180588083052,0.0010849947089422534,0.0009826194692196504,-0.0002376955248115623,81507.9214450247,33.49861062410181,-99.33756605342678,1796.2881540716148
6.8100000000000005,0.0019225405847356789,0.0024729846189931845,-27.39252348636471,-0.0017911003764604428,0.00014471394930988592,2.578112976027725e-05,,,,
6.82,-0.002302217283365127,-0.001100259422246937,-27.372318510511498,0.00031345271851635615,-0.000577827495028873,-0.0006932106173434861,81464.95109629464,,,
6.83,-0.001855507078948047,0.0016359678127160372,-27.35343777576798,-0.0006347002591305123,0.0004816388011476965,0.0005304714126998429,,,,
6.84,-0.004088016842434962,0.0048343542388720896,-27.337354307655367,3.636236809257406e-05,-8.733125866126661e-05,0.0009921486974018422,81422.67627678954,,,
6.8500000000000005,-0.003894966007334115,-0.002622454544976589,-27.3250493026617,-0.0007359255303874051,-0.0001693968700004307,-0.0002555008254726748,,,,
6.86,0.0010703695352410386,0.0032200658509222535,-27.305034045364046,0.0020576055619595333,0.0004250965049285289,-0.0010671340108477836,81381.23769347995,,,
6.87,-0.0007794070145391256,-0.0023252279786925,-27.290876066012437,0.0009667717991051703,-0.00019522605885282214,-0.0007464094724303662,,,,
6.88,0.006038668474880755,-0.002664226484139809,-27.282143803412964,0.0014635290241058892,-0.0017465976851025772,-0.0018655249158482149,81339.9316122664,,,
6.890000000000001,0.0003744865811241958,0.0031034595801350167,-27.259019431182665,-0.0021855700394024145,-0.00023000715872660037,0.0012458479697039005,,,,
6.9,0.003851743162445593,-0.0004294013295092407,-27.249276015718575,0.00021172764408357775,-0.00037009340559186646,0.00031636420658873887,81297.04218914008,33.498632536146076,-99.3375929603713,1817.7006503670618
6.91,0.0040507500690220655,-0.0029054032298754043,-27.230604296436262,-0.001162766510695815,4.323006124990065e-05,0.0009832783085659612,,,,
6.92,0.004688486448375663,0.00021249396228917314,-27.22150379650429,0.00024116120147372233,-0.001125738660117615,-0.0006212537225420684,81255.55256680446,,,
6.93,0.0067193899508761696,-0.004841670357462423,-27.20590036281298,-0.001124530222048342,0.00042435398063114354,0.0007177717900223688,,,,
6.94,-0.0036773087845578,0.001954742229669172,-27.188949325285126,7.440749012803956e-05,0.001961864402754629,3.940773184837375e-05,81214.59343602255,,,
6.95,0.001210233978969626,0.001287363469146416,-27.169368085235085,0.0007684503680359366,0.00016134716607309676,-0.00044183750354602946,,,,
6.96,-0.005597724940353678,-0.005788663866242708,-27.152589916623466,0.0017263426491488023,-0.0004291087045206496,-0.0022710986264969225,81174.007365681,,,
6.97,0.006650172019390578,-0.0014343553914961625,-27.14406401118026,0.00037945556295800726,-0.00017602183980233236,0.00015810818229025265,,,,
6.98,-0.005870573998403083,-0.009351733842472029,-27.12182960991699,-0.0002718220793810352,-0.001871162009617566,-0.0007550757237717265,81132.64037632478,,,
6.99,-0.00027781089266711376,-0.0005030123937317559,-27.105268618240917,0.0005779096403336711,0.00246420199867163,-0.0005594974302283441,,,,
7.0,-0.0025732051525263087,-0.0007692809478170044,-27.087950287837124,-0.0006468094261026503,-0.0002580152916053674,0.00043217866415359743,81089.59676157565,33.49864188738637,-99.33762636831152,1835.710233809375
7.01,-0.0032501246726503973,0.003829394704241077,-27.076655908877132,0.0008019108193616891,-0.0006231586136043833,0.00014951868276754572,,,,
7.0200000000000005,-0.000426974957608675,-0.005947782018426271,-27.062392710644428,0.0011477745393141802,0.0007967978464080218,-0.0006919814229891147,81050.0221805738,,,
7.03,-0.0032841239050857276,-0.0023273417608517207,-27.041074479418075,-0.00030128818524722016,0.0004106896464023711,-0.0007444834600992161,,,,
7.04,0.001419578907883706,0.005430963934909256,-27.031593335194035,-0.00012339816933802517,-5.607108439270156e-05,-0.0009220250204733942,81008.06273116692,,,
7.05,0.0016874103887056582,0.003397674839194676,-27.01405218379531,0.0005024857863762073,-0.0009462915850062965,-0.001814982240566576,,,,
7.0600000000000005,0.0015358355688836996,-0.00329224588353601,-26.996841074879477,-0.0007115033593790144,0.0008318528041560314,-0.0005168521398288145,80966.698931209,,,
7.07,-0.0006609719402494851,-0.0020229703598487617,-26.980340248172595,0.0008117792735337611,-0.00047079856569818277,-0.0011923079413304234,,,,
7.08,-0.0021423934842553136,-0.0015782099062463582,-26.967960809671474,-0.0007524860454787889,-0.0006465183994397087,-0.0007158560642075611,80926.55397458943,,,
7.09,-0.0001800781574908203,-0.0021392088995396217,-26.945552800473102,0.0005733976927044228,-0.00026270022802473623,-0.0002011584093840782,,,,
7.1000000000000005,-0.003940464012875626,0.0012404535169808005,-26.93685241066111,-0.00022436191826986197,0.00030811545201653794,-0.0008870590711504911,80884.89315508952,33.498639060880606,-99.33760605757305,1857.7478474106922
7.11,-0.0018260799814361537,0.00024875558746133573,-26.91630535817445,0.002144188956549577,-0.0005967220964859949,-0.0005776392286426184,,,,
7.12,0.00311224623291523,-0.0008577394881945172,-26.900603352056347,6.350870267147395e-05,-0.0015808321370592564,-0.0014983464174233368,80844.5699532402,,,
7.13,0.0019216226559278307,-0.003590880731825141,-26.88779947196224,-0.0026614310953357047,0.000995635094970285,0.0001745144885971497,,,,
7.140000000000001,0.0015369904315759874,-0.0022919066522721133,-26.87215446389556,-0.0002722127241368697,0.0018054848373618977,-0.0009703929514628759,80804.80408457233,,,
7.15,-4.218160128157496e-05,0.003035663180531617,-26.855902848002984,-0.0012303545771070496,-0.000997207399232735,-4.980157913481404e-05,,,,
7.16,0.0010830338694712612,0.0048944044265446015,-26.84517847498831,0.0009612734244788079,-0.00048563530141608816,0.00032016710709792287,80761.89213928624,,,
7.17,0.0025152697893117033,-0.0034820227273349258,-26.835721995453287,0.0005479244374276492,-0.00020060639639185482,0.001902523725241309,,,,
7.18,0.001953385076993731,-0.0018158407747357183,-26.81955886983316,0.00011722966054595456,0.002242383944707595,0.0005227487880128967,80723.15022580112,,,
7.19,-0.003871215279350304,0.0017475414915613786,-26.803479712643355,0.0007070617185551516,-0.0012044869032234189,0.0012133310448050655,,,,
7.2,-0.001555014027557302,-0.0017372374242759123,-26.792102785626387,-0.0003020558595607533,0.00021205862696599385,-0.0009705557729177681,80682.60776744735,33.49864674287446,-99.33765606091839,1886.194710686235
7.21,-0.002907405046703283,-0.004670118498954867,-26.780053961865185,0.00030395537691865526,9.733358457789325e-05,0.0014457625551954436,,,,
7.22,0.0010755869704690763,0.003526635818071012,-26.757111583845326,-0.002415183319451381,0.00038833273174606275,-0.0001611283092263704,80642.35015888415,,,
7.23,-0.001968112137817086,0.0020985518325010283,-26.74630511817864,0.0011064540830415558,0.0005800461650169027,0.0014238366100130856,,,,
7.24,0.0017950744139893853,0.0029491827829878476,-26.723674284907855,-0.00021815488852672184,0.0015103418932924286,0.0021700343391963927,80601.65548270497,,,
7.25,0.0009589951823872434,-0.0018280422759614236,-26.706471334285663,1.19820165132562e-05,-6.2978603286710224e-06,0.0006495382788648358,,,,
7.26,-0.003057512666918291,0.003763065392448375,-26.691018326269344,0.0011163661662527426,0.00041678342385521703,0.0011034479299625753,80561.1234573304,,,
7.2700000000000005,-0.00095759078798278,-0.006273327519899649,-26.681900895868406,0.0005633789946311412,-0.0004952695206426999,-0.002127468952753745,,,,
7.28,0.003879672622876032,-0.001638499016314205,-26.669316079995756,-0.0005150593407766861,0.0008459205293727893,-0.0009254106983295161,80521.3873837244,,,
7.29,0.0021068980034778047,-0.002579404956914911,-26.65390981076835,-0.001206127015796188,0.001090153275451756,0.00029537481063396826,,,,
7.3,0.0025198360496992947,0.0034637051679185086,-26.6406301107816,0.00014134774649087958,0.0014562534087053291,-0.00028674926569806505,80479.98800899195,33.49868518554128,-99.33763108390507,1902.8933660818811
7.3100000000000005,-0.00033231399030806075,-0.001162853988313136,-26.62296185414543,0.001826475353511131,0.001467381034107199,0.0002862395817124222,,,,
7.32,-0.0029730878526925955,-0.0018429101739509137,-26.6052943657286,-0.0016139141704962791,0.002053813629485869,3.5140337120409083e-06,80440.95288014151,,,
7.33,-0.0008090570659597717,-0.0015020625213068202,-26.589251090948405,0.0001861676292831787,0.0016685533538094658,-0.0008399541716031005,,,,
7.34,0.0032747282909165298,-0.004055845975815442,-26.57747839871788,-0.002658934226351058,-0.001204890483142953,-0.00024225471641348684,80402.69738008874,,,
7.3500000000000005,-0.0006752708803456912,0.0026805720175306757,-26.55906667987542,-0.0005203638200572257,0.0001967042029909068,0.0011648211193215293,,,,
7.36,-0.000835220993635444,-0.005403775213674672,-26.54576752252074,-0.00024225340205166212,-0.0006598683669570438,-0.0006212402368659891,80360.75269644517,,,
7.37,0.002428034348725598,-4.3463526572066116e-05,-26.532950012231606,-0.0005422979618128535,0.00014433489318656958,-0.0002365510899563237,,,,
7.38,-0.002599777027919782,0.0035551276166253458,-26.519331120687568,-0.000959419726601025,-0.00042116571730186275,-0.0011830173470838508,80322.18859569755,,,
7.390000000000001,0.0006237149433300555,0.0064807826764350495,-26.505344005980916,0.00046500966879090336,0.00041709456868126285,0.0008021241711640898,,,,
7.4,-0.005099189491821754,-0.0015595929611087551,-26.489534303591615,0.0008338179459360911,-0.002418033515627733,0.0007018835422794988,80282.48178624136,33.49859100181929,-99.33764154384039,1920.767674830619
7.41,0.001465660016446931,-0.0011435825338258954,-26.48128496938098,-0.0005811595240619403,-5.432354971303759e-05,-0.0013210491906395672,,,,
7.42,-0.0022540703191111368,-0.0010408119239120892,-26.46638683446708,-0.0006522274928529743,-0.0007260126712486506,-0.0015067768647187333,80243.3967908008,,,
7.43,0.002370172551724787,-0.0035537355353030715,-26.456714638095626,0.0009391669441193273,0.0005187729220215133,0.00023571778103527796,,,,
7.44,0.001669548911167193,-0.0019543559328202955,-26.440787454439803,0.00022496153584552965,-6.233385996690243e-05,-0.00025408094923135997,80203.23297068306,,,
7.45,-0.0009288805176396329,0.0021024480100025607,-26.423185463667124,9.574316798569746e-05,-0.0020246685213149516,0.00021747866424058358,,,,
7.46,0.0015960292040773497,-0.0015298413533616506,-26.4186221824521,0.0005175558296608403,0.0005738187028047456,0.002128986842566293,80164.7976192871,,,
7.47,0.0005867585900312499,0.0008520814260091686,-26.396812990180088,-0.0004095924032553317,-0.0006037024932924633,-1.725019692450385e-06,,,,
7.48,-0.0029930526217722,0.0031424232225270234,-26.384559597913697,0.0008445970753793595,0.0008301090798006842,-0.001366556155131927,80124.51068709037,,,
7.49,-0.0013429611652620802,-0.004361905391984122,-26.36541083104094,0.003178066481212348,-9.84670029501427e-05,-0.0008241093766131909,,,,
7.5,7.627345234900863e-05,-0.005144287800636039,-26.35227672959191,3.082030896864921e-05,0.0001746338250129004,0.00015920911696943685,80085.14896659984,33.49861840122794,-99.33763158994032,1946.6231904742515
7.51,-0.002550123585989608,0.0069178176246174365,-26.337045631493748,-0.0005389723097158155,-0.0016935122157448214,-0.0009325181492700584,,,,
7.5200000000000005,0.0017571951458783845,-0.00014645783442615148,-26.32793915232356,0.00035916576866830007,-5.8721499223116516e-05,0.0026965597312434025,80045.38843531325,,,
7.53,-0.003144988974602144,0.00026463347165883917,-26.308177916840407,-0.0005100980381912912,-0.0005195919655756653,-0.0014212346771142635,,,,
7.54,-0.0012186986798022183,-0.00685623963885722,-26.295591627465047,-4.0838378448831054e-05,5.528582411739749e-05,-0.0006783853328295796,80007.21618420309,,,
7.55,-0.0038556068428607154,-0.0029744676220350174,-26.286025910401342,0.0011272062105193716,-0.0006135974210654424,-0.0013362033140568272,,,,
7.5600000000000005,-0.0019063740905618286,0.00043103138939704414,-26.268642050275247,0.0008344454643505366,-0.0010352994205700078,-0.0015181636227481613,79968.59824532102,,,
7.57,-0.0006515596324481402,-0.00020145991588800072,-26.25554502461245,0.0017524445514017775,-0.0002856405070440104,0.001051531580703524,,,,
7.58,0.0017587256169464035,-0.002363360048838947,-26.240874983168844,0.001109416021379921,-0.00039281402760604685,-0.0014159653169098735,79929.8496196384,,,
7.59,6.922428969420818e-05,0.002004808214608538,-26.21989210018687,0.0010877522378267544,0.0016059631477940677,-0.0005350974199437536,,,,
7.6000000000000005,-0.0010764523037961804,-0.0007584132657067608,-26.21345182377729,-0.0001599936266403187,4.5429594725880917e-05,-0.0003675384533911472,79890.96758124037,33.49862001255195,-99.33760948829301,1963.866744822975
7.61,-0.0012800260669638532,0.0015369551996444754,-26.190454494135626,0.0015651822809771006,-0.0014294942470253482,0.0004385056084686198,,,,
7.62,-0.001599578653400368,0.0037908138011291375,-26.18193873539439,-0.00015147192199559543,0.00010732493132650378,-0.0008639733096588777,79854.30420452122,,,
7.63,0.0005147621761894894,-0.0059363619740966265,-26.16607382856416,0.0007056501258377782,0.0006311920436532542,0.0007893155139960474,,,,
7.640000000000001,0.0010503590245106024,0.0008993298497547859,-26.15456383267143,0.0009372069386377759,0.0010742974782278138,-0.001127925123706075,79812.84815993745,,,
7.65,0.0031122750791062925,0.0011108238969104638,-26.142881957389314,0.00019348885163062815,-0.0010142289891966005,-0.0005054874257447513,,,,
7.66,0.004858968656598636,-0.0038728436248204544,-26.13178046039409,0.00027265653202651976,0.0017896440550002016,-0.0006159847616639081,79774.50408160858,,,
7.67,0.006161107104460807,0.0008871892876534436,-26.120242458722757,0.0008527054255626472,-0.0008965121349367799,0.0013863392481230667,,,,
7.68,0.0011441895920842866,0.0007864013624159228,-26.103972374535665,-0.0009978568494612267,-0.002001582292861219,-0.0019557332656035967,79736.94352099311,,,
7.69,-0.0006200387853443903,0.005729287860037511,-26.097672424791373,-0.0007024185560747395,-0.0008668235606240106,0.00012359652078625439,,,,
7.7,0.00037021078968919755,0.006359322651337822,-26.08828842123151,-0.0011872469177052589,0.00096221967822564,-0.0015983838304461128,79698.81011404858,33.49858300775445,-99.3375752947164,1977.4705597392542
