time_s,accelerometer_x,accelerometer_y,accelerometer_z,gyroscope_x,gyroscope_y,gyroscope_z,barometer_v1,gnss_x,gnss_y,gnss_z
0.0,0.0,0.0,-9.7803253359,0.0,0.0,0.0,96454.37206994892,33.49862509998743,-99.33761247678021,416.5339367538068
0.01,0.0,0.0,16.572090375652238,0.0,0.0,0.0,,,,
0.02,0.0,0.0,30.067842399173905,0.0,0.0,0.0,96454.32147534362,,,
0.03,0.0,0.0,43.55133494590137,0.0,0.0,0.0,,,,
0.04,0.0,0.0,57.04769629406945,0.0,0.0,0.0,96454.08602921385,,,
0.05,0.0,0.0,68.56592572615186,0.0,0.0,0.0,,,,
0.06,0.0,0.0,80.07953983875377,0.0,0.0,0.0,96453.54307393645,,,
0.07,0.0,0.0,83.50128402522718,0.0,0.0,0.0,,,,
0.08,0.0,0.0,86.84597343982942,0.0,0.0,0.0,96452.59646868818,,,
0.09,0.0,0.0,86.280172099062,0.0,0.0,0.0,,,,
0.1,0.0,0.0,85.67355103776791,0.0,0.0,0.0,96451.20801120097,33.49862509998744,-99.3376124767802,416.8068647978636
0.11,0.0,0.0,85.17772561328486,0.0,0.0,0.0,,,,
0.12,0.0,0.0,84.6819893895903,0.0,0.0,0.0,96449.37675722493,,,
0.13,0.0,0.0,84.40483822806566,0.0,0.0,0.0,,,,
0.14,0.0,0.0,84.12923272571065,0.0,0.0,0.0,96447.10713591256,,,
0.15,0.0,0.0,84.12788415871672,0.0,0.0,0.0,,,,
0.16,0.0,0.0,84.12900103629526,0.0,0.0,0.0,96444.40166807068,,,
0.17,0.0,0.0,84.2558917812547,0.0,0.0,0.0,,,,
0.18,0.0,0.0,84.38396828542467,0.0,0.0,0.0,96441.26059196802,,,
0.19,0.0,0.0,84.36583534881757,0.0,0.0,0.0,,,,
0.2,0.0,0.0,84.34587699071224,0.0,0.0,0.0,96437.68317841525,33.498625099987436,-99.3376124767802,417.97355351275115
0.21,0.0,0.0,84.37724852546825,0.0,0.0,0.0,,,,
0.22,0.0,0.0,84.40891826451313,0.0,0.0,0.0,96433.66931540512,,,
0.23,0.0,0.0,84.45331322281201,0.0,0.0,0.0,,,,
0.24,0.0,0.0,84.49763876939794,0.0,0.0,0.0,96429.21879882569,,,
0.25,0.0,0.0,84.53917872920388,0.0,0.0,0.0,,,,
0.26,0.0,0.0,84.58048505570166,0.0,0.0,0.0,96424.33127256206,,,
0.27,0.0,0.0,84.72541330064611,0.0,0.0,0.0,,,,
0.28,0.0,0.0,84.87135639076553,0.0,0.0,0.0,96419.00622342105,,,
0.29,0.0,0.0,85.02362822067302,0.0,0.0,0.0,,,,
0.3,0.0,0.0,85.1758398596648,0.0,0.0,0.0,96413.24249238976,33.498625099987436,-99.3376124767802,420.08208898963153
0.31,0.0,0.0,85.32110966118783,0.0,0.0,0.0,,,,
0.32,0.0,0.0,85.46626997615395,0.0,0.0,0.0,96407.03872662754,,,
0.33,0.1353060735644576,0.8786205405014454,85.60258685890798,0.0035973198892194154,-0.0019144094736990272,2.973860608725741e-30,,,,
0.34,0.13945834742129196,0.9025321783735727,85.74988317492716,0.014865699645068632,-0.007911890438163646,-1.4258605674722917e-23,96400.39350408077,,,
0.35000000000000003,0.1423650056282392,0.9231871457904163,85.86009230413144,0.02641524867588887,-0.014060162033179426,-2.8495749315756986e-23,,,,
0.36,0.14397308743053464,0.9403720927209691,85.96728019454093,0.038228685505406715,-0.020350128599162604,-1.8335262629015883e-22,96393.3058439785,,,
0.37,0.14423197200737664,0.9538803345848827,86.09003368739785,0.050286697515529194,-0.026771614282709924,-4.74750703175218e-22,,,,
0.38,0.14309344046552547,0.9635039220790885,86.21410094633818,0.06256831442920821,-0.03331355990585753,-7.283554141657316e-22,96385.77458121486,,,
0.39,0.14050415783640768,0.9690252078457491,86.36299526593348,0.07505067593158773,-0.039963899803681875,-7.283182786361897e-22,,,,
0.4,0.13642521254269513,0.9702422565983888,86.51390370417484,0.08770823734269939,-0.04670914167534593,1.1443491453481037e-21,96377.79861560895,33.49862511160258,-99.33761245444585,423.140382678652
0.41000000000000003,0.13080450874871324,0.966963789001009,86.84889444752464,0.10051326012410197,-0.053534625329272605,2.0093584529874174e-21,,,,
0.42,0.12360580610196109,0.9589955171967093,87.1985184741626,0.1134358401569485,-0.06042453744352883,8.922228513405273e-22,96369.37635948624,,,
0.43,0.11477301066969753,0.9460546847422346,87.33345123502198,0.1264441699653629,-0.06736204734551089,-2.166994796039174e-21,,,,
0.44,0.10426534470475884,0.9279176204310853,87.45213332858368,0.13950357925546333,-0.07432879697055145,-3.60702665452206e-21,96360.50529955348,,,
0.45,0.09204280155366806,0.9043810139940315,87.6203397028494,0.1525761805065454,-0.08130471446217982,-3.2070892929617927e-19,,,,
0.46,0.07805986668224374,0.8752299353025763,87.79253940260473,0.1656212648049355,-0.08826822273322288,-1.4687913608370174e-18,96351.18390516518,,,
0.47000000000000003,0.06229221068816537,0.8402630262034665,87.90541672917624,0.17859577894792428,-0.09519649061220312,-1.5922253467449393e-18,,,,
0.48,0.04470665611234148,0.79928276298417,88.01388012531996,0.19145923660574207,-0.10206803825309446,-3.291830564696186e-18,96341.41083718748,,,
0.49,0.025270655250253626,0.7520608423463135,87.95646664583337,0.2041595309238757,-0.10885520801743882,-1.2492685880236489e-17,,,,
0.5,0.003961901195215001,0.6984601182398514,87.88617117210617,0.21664634559920856,-0.11553127899394279,-3.773179051209077e-17,96331.1853324063,33.49862514802317,-99.33761238428649,427.16333549426713
0.51,-0.019230688461800094,0.6384104173819181,88.09869458539305,0.2288705995957546,-0.12207017623344925,-6.212795660291994e-17,,,,
0.52,-0.04428418087462149,0.5718064799736944,88.33261396914372,0.24077749097508863,-0.12844277488025474,-8.328452772880867e-17,96320.50729962903,,,
0.53,-0.07123324289244981,0.498504231011212,88.5444046297907,0.2523114588196426,-0.13461953390065867,-8.698453492418466e-17,,,,
0.54,-0.10005688198554896,0.4184502007368507,88.75472208647655,0.26341369634585615,-0.1405691731288641,-8.687550367524865e-17,96309.37529109494,,,
0.55,-0.13075433022861493,0.3315611143914854,89.0002918715631,0.27403466759434303,-0.14626533123180124,-1.0677281803121874e-16,,,,
0.56,-0.1633004114066927,0.23783728766735912,89.24917511599065,0.28410697126882845,-0.15167212728207946,-1.2086616537367264e-16,96297.78747138212,,,
0.5700000000000001,-0.19767019322932455,0.13724975339271595,89.45933727412307,0.293575648195135,-0.15676028795535252,-1.3639814853858325e-16,,,,
0.58,-0.23383745443186776,0.029838716434362755,89.66689789953183,0.30237780642224005,-0.1614962998683884,-1.3819524651987365e-16,96285.7418769161,,,
0.59,-0.27174804247463324,-0.08430567969219016,89.83778932601356,0.3104489801691754,-0.16584579241774539,-1.380885006696174e-16,,,,
0.6,-0.31133549432310437,-0.20503588665811012,90.00595820202977,0.3177275552498602,-0.16977589504956045,-1.3803347074507724e-16,96273.2367899,33.49862512251512,-99.33761243283097,432.1660182089653
0.61,-0.3525332422758498,-0.33218323913393366,90.15844176501278,0.32415241188734784,-0.1732539816175635,-1.3796797144304114e-16,,,,
0.62,-0.39529379667634723,-0.4655665408381262,90.30992170128488,0.32966332197116055,-0.1762478794551562,-1.376539312206088e-16,96260.27090786264,,,
0.63,-0.4394799827456186,-0.6048233120963511,90.50019553755745,0.33419988652849697,-0.17872529965295791,-1.4645717336974364e-16,,,,
0.64,-0.48501363927194285,-0.7496633082331812,90.69373735753072,0.33770552925794556,-0.18065596934214342,-1.605412961253846e-16,96246.84309638811,,,
0.65,-0.5317542506187336,-0.8996761693878934,90.95731900118449,0.340129956241012,-0.18201295034793666,-1.892746348217659e-16,,,,
0.66,-0.5796319127532965,-1.0545088378364467,91.22663014080369,0.341422768312621,-0.18276921876755303,-1.8633941685334374e-16,96232.95198201631,,,
0.67,-0.6284362733332802,-1.2135726183017495,91.52424690010564,0.3415351846717724,-0.18289858079776652,-1.8604446045300707e-16,,,,
0.68,-0.6780797867324875,-1.3763966138659072,91.82420787962559,0.3404257207260256,-0.1823787166658146,-1.86162982923839e-16,96218.5956857359,,,
0.6900000000000001,-0.7283418718128214,-1.5422997741636397,92.16755572793056,0.3380569779657381,-0.18118945383120943,-1.8572924895016244e-16,,,,
0.7000000000000001,-0.7790962426988757,-1.7106800164876619,92.51466419349751,0.3343974380714566,-0.17931373457132022,-1.856709752720065e-16,96203.77201987126,33.498624856790975,-99.33761294304372,438.1650268696125
0.71,-0.8301228311702129,-1.8807774041427336,92.89191195421638,0.32942170339884225,-0.1767377378209572,-1.8569710951450514e-16,,,,
0.72,-0.881232745176221,-2.0518240351243957,93.27166944555694,0.32311061128748764,-0.17345093671943587,-1.8570322030468557e-16,96188.47850875206,,,
0.73,-0.9322189461611687,-2.222952940592277,93.67590351472025,0.31545261262607066,-0.16944682919299503,-1.8567152355853837e-16,,,,
0.74,-0.9828213615283641,-2.39324015629796,94.08209853404558,0.30644448317271367,-0.16472333414176746,-1.8564315312180957e-16,96172.7123661809,,,
0.75,-1.032868668661389,-2.5617769595615663,94.5060710359761,0.29609294375448897,-0.15928365290468124,-1.8558766620826033e-16,,,,
0.76,-1.0820245725268425,-2.7274893736551444,94.93155268517417,0.28441314010050706,-0.1531354515477352,-1.8546887299251573e-16,96156.47062962853,,,
0.77,-1.130139221241783,-2.8894073686030275,95.35678082034265,0.2714307193694245,-0.14629198166549762,-1.854194584162947e-16,,,,
0.78,-1.1768713694046937,-3.046376395635985,95.78194575489742,0.25718129078363827,-0.13877178148223696,-1.8520292763095322e-16,96139.75021028222,,,
0.79,-1.2220199657404445,-3.1973305246060324,96.18723397317154,0.24171223859210691,-0.1305996567277459,-1.8566748738210646e-16,,,,
0.8,-1.2652605696375012,-3.3410692852867854,96.59076666362128,0.22508093684374328,-0.12180572007114736,-1.866694542753045e-16,96122.5480250598,33.498624106850905,-99.33761438539526,445.1825616245924
0.81,-1.306349685386344,-3.4764436392627545,96.94516186439019,0.20736192509550494,-0.11242920889483832,-1.8654202873260808e-16,,,,
0.8200000000000001,-1.3450288141839861,-3.6023119050614607,97.29478221942796,0.188630052561939,-0.10250958367694708,-1.8650959905394924e-16,96104.86115312872,,,
0.8300000000000001,-1.3810183095029442,-3.7174913190472587,97.59224456062368,0.1689841213017672,-0.09209900559726247,-1.86480915848611e-16,,,,
0.84,-1.4140356915500893,-3.8208187022643205,97.88488886797627,0.14852562550786086,-0.08125112149996126,-2.0034178752547953e-16,96086.68712794475,,,
0.85,-1.4438513678655678,-3.9112048517228057,98.13779935220583,0.12737769127903992,-0.07003107515608577,-1.9959948376717897e-16,,,,
0.86,-1.4702202874495232,-3.9875881163049023,98.38670542348402,0.10565348583701828,-0.0584987960626301,-1.8169184272576833e-16,96068.02388165794,,,
0.87,-1.4929144241478092,-4.048961132589673,98.60914676631918,0.083494645564767,-0.04672934024554134,-1.8231410277012984e-16,,,,
0.88,-1.5117073385126787,-4.094389511879633,98.82838096809563,0.061059884655901085,-0.03480687938865017,-1.8087150557194109e-16,96048.86966869292,,,
0.89,-1.526420293512217,-4.123061140702191,99.04935498743956,0.0385007617532857,-0.022811851400177083,-1.756555641146415e-16,,,,
0.9,-1.5368914014454553,-4.134267609326047,99.2691869596776,0.015981729254972554,-0.010831589698323867,-1.7010251316831614e-16,96029.22280927206,33.49862263489578,-99.33761722035125,453.24966384533417
0.91,-1.5429790639889456,-4.1274212373204655,99.49671079566856,-0.00632545772939209,0.001042636939069485,-1.6404038373177207e-16,,,,
0.92,-1.5445777032469925,-4.10206913524171,99.72352606809052,-0.028247436111928884,0.012718648349530941,-1.5908873790404047e-16,96009.08157132764,,,
0.93,-1.5416139734790493,-4.05791052765637,99.9345592816909,-0.04960519445645407,0.024101205543148062,-1.5920649102743593e-16,,,,
0.9400000000000001,-1.5340513434608622,-3.9948448629118634,100.14376474294914,-0.07021055529521682,0.03509012956076166,-1.5922356373808754e-16,95988.44405763166,,,
0.9500000000000001,-1.5218969455549702,-3.9129403739902955,100.324727899314,-0.0898820589536703,0.045588745944784126,-1.5947306571945874e-16,,,,
0.96,-1.5052029660188486,-3.8124730595129233,100.50114753986001,-0.10843893032979514,0.05550068001199099,-1.5943653413741084e-16,95967.30832759994,,,
0.97,-1.4840561742123883,-3.69390811904349,100.63497561917606,-0.12570472780715086,0.06473179204325158,-1.5957638384218913e-16,,,,
0.98,-1.458598665668358,-3.557949008040101,100.76468965371762,-0.1415094482976775,0.07319129488906512,-1.594820232196878e-16,95945.67261606382,,,
0.99,-1.4290106199405477,-3.405496356438203,100.83593963332453,-0.1556917941336076,0.08079296532171243,-1.5939276031048634e-16,,,,
1.0,-1.3955427441697115,-3.237732528110751,100.90123480468807,-0.1681011351794317,0.08745618781827741,-1.5936368088542807e-16,95923.5354698699,33.49862032657873,-99.33762167290881,462.3906960757768
1.01,-1.3584657840138963,-3.056006140171233,100.93690354743555,-0.17860087166199254,0.09310773968702499,-1.5872248952574682e-16,,,,
1.02,-1.318122440828846,-2.8619480034245015,100.96863337829603,-0.1870709559756145,0.09768313883504008,-1.5406034295881935e-16,95900.8958489717,,,
1.03,-1.2748906891909328,-2.657376799753516,101.00043694480733,-0.19340877580047316,0.10112712224718837,-1.4910986099445188e-16,,,,
1.04,-1.2292016272761668,-2.444338033610304,101.03138362909029,-0.1975330637621846,0.10339572539788028,-1.5002404386715916e-16,95877.75298260615,,,
1.05,-1.1815216105309858,-2.225054519879004,101.08195372538765,-0.1993861012716145,0.10445746278080385,-1.516469148573696e-16,,,,
1.06,-1.1323664281980177,-2.0019399657419186,101.1334349775418,-0.19893297955636527,0.10429294738864595,-1.53968586282687e-16,95854.10611443642,,,
1.07,-1.082273889402332,-1.7775390155052122,101.22330160122584,-0.196166795711938,0.102897657355211,-1.5447809126420792e-16,,,,
1.08,-1.0318206543911685,-1.5545223456559008,101.31612511448529,-0.19110817166086097,0.10028169385304,-1.5490306368925591e-16,95829.9543238182,,,
1.09,-0.9815916006555794,-1.3356348015222306,101.42144525314605,-0.1838063100253124,0.09647035337360972,-1.555256937887332e-16,,,,
1.1,-0.932225432033353,-1.1237293382154476,101.5284135040416,-0.1743398672275707,0.09150460365093509,-1.5427206140969327e-16,95805.29642879855,33.49861725664797,-99.33762760507344,472.62420981803706
1.11,-0.8843187626879869,-0.9215951222835201,101.61932349302438,-0.16281743359527748,0.08544135223558903,-1.4619687656434575e-16,,,,
1.12,-0.8384956982207203,-0.7320492772040481,101.7096591993451,-0.14937556606897615,0.07835241037718442,-1.3894695385381834e-16,95780.13118895062,,,
1.1300000000000001,-0.7953798855432517,-0.5578431508675283,101.78557616400319,-0.13418091650766445,0.07032564048039282,-1.3960714437069295e-16,,,,
1.1400000000000001,-0.7555516815078063,-0.40156235737749135,101.86152772344882,-0.11742816684639559,0.061463873024354736,-1.4018727738861135e-16,95754.4575495914,,,
1.1500000000000001,-0.7195918515018151,-0.2656863719405749,101.92755907646804,-0.09933607924669477,0.051882812566391635,-1.4012964925904769e-16,,,,
1.16,-0.6880241301541608,-0.15243718976907417,101.9941826260971,-0.08014818639132992,0.04171142440817813,-1.4028160334161873e-16,95728.27469742604,,,
1.17,-0.6613273979374528,-0.06376812083272121,102.0651527958598,-0.0601289310852148,0.031089893876143804,-1.415745080029297e-16,,,,
1.18,-0.6399251971708582,-0.0013402473758468147,102.13676876392839,-0.039558878319497226,0.020167081848607514,-1.42678156819037e-16,95701.58200859754,,,
1.19,-0.6241713647090741,0.033584469969907715,102.21892827227188,-0.01874473688460107,0.00910587166169828,-1.4617205659327917e-16,,,,
1.2,-0.6143308046976905,0.04017350055126023,102.3035250277994,0.002007301071838807,-0.0019309853827015745,-1.5791908449620683e-16,95674.3789331757,33.49861361106442,-99.33763466349819,483.96370394936685
1.21,-0.6105972209526174,0.017883432773009744,102.39191667461843,0.02241748441940224,-0.012794680123144784,-1.5861399496524247e-16,,,,
1.22,-0.6130779491569216,-0.033311550216469143,102.4843596291126,0.04217447241503362,-0.023319481394405168,-1.5386197042316966e-16,95646.66498579625,,,
1.23,-0.6217780543906173,-0.11292908441433802,102.56915360656278,0.0609714035402298,-0.03334189510456648,-1.554615690535917e-16,,,,
1.24,-0.6365928245806991,-0.2199473578655482,102.65245209182041,0.07850892773871793,-0.042702277716390194,-1.5918876097459713e-16,95618.439726336,,,
1.25,-0.6573182909491218,-0.3528868534479379,102.72185645812634,0.09451379344324483,-0.05125473452669166,-1.5799714593268053e-16,,,,
1.26,-0.6836502107573299,-0.5097650636774738,102.792077277285,0.10873407343558954,-0.058864577637066005,-1.5794334433202623e-16,95589.70287664115,,,
1.27,-0.7151562537580274,-0.6880344375657383,102.85467456238803,0.12094174595903136,-0.06540970250292949,-1.579010746947255e-16,,,,
1.28,-0.7513495196057391,-0.8848880865573143,102.91727168233463,0.13095057092241588,-0.07079015472133621,-1.5685685897660056e-16,95560.45440870234,,,
1.29,-0.7916089991703936,-1.096904559016636,102.98196287644987,0.13860014560219722,-0.07491958657537277,-1.5827918286297352e-16,,,,
1.3,-0.8352364395127969,-1.3203529015337416,103.04695741411827,0.14377667718700454,-0.07773637377877442,-1.5818109754913594e-16,95530.69446474372,33.4986094851686,-99.3376426667286,496.4197796171942
1.31,-0.8814670102096,-1.5512078466152843,103.13306249857277,0.1464104102094939,-0.07920225387277276,-1.5803763102446847e-16,,,,
1.32,-0.9294699801055488,-1.7851994119017167,103.22038870648726,0.1464767696563528,-0.0793029564679281,-1.5785831032654988e-16,95500.42323961311,,,
1.33,-0.9783684174157035,-2.017894306711284,103.33337296235332,0.14400099488533444,-0.07805068690193027,-1.564032352977728e-16,,,,
1.34,-1.0272333401444511,-2.2447691063672934,103.44738964602718,0.13905888251595222,-0.07548454882957875,-1.603919555270729e-16,95469.64082376486,,,
1.35,-1.0751596306464268,-2.461384229016243,103.57715564179968,0.13177594356694805,-0.07167012120694805,-1.7569885359386395e-16,,,,
1.36,-1.1212014015435896,-2.6633213176788892,103.70670833952364,0.12232047102728716,-0.06669578923521084,-1.7675543793363612e-16,95438.3470912435,,,
1.37,-1.1644826420096468,-2.846488426594936,103.85560662872469,0.11091261898659285,-0.06067761217433749,-1.763539171695164e-16,,,,
1.3800000000000001,-1.2041448523702991,-3.007078304456954,104.00381834049885,0.09781215334488065,-0.05375282517707527,-1.7330895625051559e-16,95406.54173782875,,,
1.3900000000000001,-1.239405697692967,-3.1417011360223768,104.18498827361594,0.08331440762886885,-0.04607770761603983,-1.6902915987914346e-16,,,,
1.4000000000000001,-1.2695508912892741,-3.2474564960561576,104.366604714222,0.06775067427408445,-0.037827804759902585,-1.6903553702026752e-16,95374.22419769912,33.49860477601714,-99.33765181403393,509.997439295399
1.41,-1.2940030116590036,-3.322151201854947,104.5852815212529,0.0514765212728015,-0.02919176720287347,-1.6911883061777787e-16,,,,
1.42,-1.312290701600821,-3.3642596976487233,104.80469326456436,0.0348702250029722,-0.020370500623173943,-1.7532528543046808e-16,95341.3934907044,,,
1.43,-1.324092921732423,-3.372906095480044,104.96717170631239,0.018275945479011894,-0.01154696902134617,-1.9212494624453413e-16,,,,
1.44,-1.3292135300664398,-3.348053430188541,105.12272123301076,0.0020851232533590997,-0.002929460026530795,-1.9297843458215573e-16,95308.04834882176,,,
1.45,-1.3276339806340838,-3.2905280598597155,105.19440545458883,-0.01332726257957208,0.00528227619531211,-1.9200368973372243e-16,,,,
1.46,-1.3194489153264701,-3.2016270160891587,105.25672714248925,-0.027642697855912484,0.012918376918725386,-1.898249446779112e-16,95274.18776378753,,,
1.47,-1.3049312231753492,-3.083629609304541,105.22226592192871,-0.040534566818391134,0.019804463779842314,-1.8945474134515828e-16,,,,
1.48,-1.284552867302133,-2.939825068957946,105.17796977491702,-0.05170056538376121,0.02577886628398364,-1.8937027184605954e-16,95239.81138828171,,,
1.49,-1.2589170222885429,-2.774044816896783,105.0709666706719,-0.06089992918739396,0.030712517217869575,-1.893168372309788e-16,,,,
1.5,-1.2287685871567735,-2.5907483192558463,104.95759570000615,-0.06794171663893453,0.034502720530593056,-1.8924969686260892e-16,95204.91962619644,33.49859933692951,-99.33766239094406,524.7047387599505
1.51,-1.1949771406228757,-2.394930462417163,104.8792210615295,-0.07269308747420689,0.03707756294763377,-1.895320632910646e-16,,,,
1.52,-1.15851194947476,-2.191950414464193,104.8033374349905,-0.07508179659942817,0.03839730697214461,-1.8941558761401647e-16,95169.51336079442,,,
1.53,-1.1204191998674444,-1.987413632036592,104.77377405102605,-0.07510048152330755,0.03845668519730705,-1.8930509336743218e-16,,,,
1.54,-1.0817914721523048,-1.7870131896900592,104.74775134242775,-0.07280279554375721,0.037282886662726084,-1.8924571658277008e-16,95133.59326175874,,,
1.55,-1.043740773478576,-1.5963626125142962,104.73612240049044,-0.06830959868563242,0.03493888700575349,-1.8918682432295976e-16,,,,
1.56,-1.0073674984471426,-1.4208252919399396,104.72454334713285,-0.06180319132201533,0.03152042179857992,-1.8916721033053211e-16,95097.15963511035,,,
1.57,-0.9737174575989691,-1.2653441696777676,104.68024593371597,-0.05351971031200388,0.027151974710067698,-1.8910298097791018e-16,,,,
1.58,-0.9437601440024785,-1.1342784962309693,104.63445469577273,-0.043747158264702414,0.02198577100198327,-1.8903792561631382e-16,95060.21271612612,,,
1.59,-0.9183576375807601,-1.0312971551659196,104.53821335318261,-0.03281212556806485,0.016194732662745365,-1.8897632077695637e-16,,,,
1.6,-0.8982448441622761,-0.9592230588317552,104.43898124623408,-0.021087785433550575,0.009976751966369326,-1.9069311980584255e-16,95022.75311596198,33.49859319117894,-99.33767435749992,540.5484514610259
1.61,-0.883952481155295,-0.9198035045001802,104.27898192201073,-0.008941330101220129,0.0035268085522648304,-1.9522640157275625e-16,,,,
1.62,-0.8758483548965579,-0.9137992590297301,104.1155312576948,0.003233205799520309,-0.0029456308011440884,-1.9825861306657503e-16,94984.782055388,,,
1.6300000000000001,-0.874080446627401,-0.9407809025281288,103.91935874817271,0.01504747278756599,-0.00923385943886142,-1.9857744821169934e-16,,,,
1.6400000000000001,-0.8785966112511696,-0.9992870588800535,103.72498490626413,0.026134170927584653,-0.015142139654298918,-1.7522178169174644e-16,94946.30144843736,,,
1.6500000000000001,-0.8892276401364692,-1.0874844848998304,103.53879818785133,0.03620884017205358,-0.02051867735097469,-1.732249982807393e-16,,,,
1.6600000000000001,-0.9054751252991551,-1.2015168182085123,103.35404137041758,0.044928286625210166,-0.025180081063121054,-1.9442796560647967e-16,94907.31353675527,,,
1.67,-0.9267857559267014,-1.337604688803367,103.1878046489508,0.05206702883467643,-0.029005544667100425,-1.9105983594412273e-16,,,,
1.68,-0.9523620031235511,-1.4907079937767467,103.02045800900679,0.05742233036181014,-0.03188612450527001,-1.9064811867377108e-16,94867.82070953013,,,
1.69,-0.9812220139486456,-1.6549710108129077,102.86535291374112,0.06085758018389162,-0.03374789214610049,-1.9058789471752949e-16,,,,
1.7,-1.0123157397436984,-1.824429277660272,102.71061689845861,0.06231801620593528,-0.03456043940252439,-1.9051940432923337e-16,94827.82534026445,33.49858643332034,-99.33768753490102,557.5247488320716
1.71,-1.0445187480620115,-1.9929495653369251,102.55833608963816,0.06181816056248736,-0.03433018665664593,-1.9052277707405187e-16,,,,
1.72,-1.0766767090013438,-2.1544853053047515,102.40528473303823,0.059444739109497394,-0.033101991448668926,-1.9037479454590529e-16,94787.32974723524,,,
1.73,-1.107652568480443,-2.3032838412193275,102.25641919912655,0.05535105610003466,-0.030956201494274443,-1.8897790094178107e-16,,,,
1.74,-1.136362563664175,-2.4341228597605635,102.10584405618083,0.04974954899886032,-0.02800473511697204,-1.8972123633906284e-16,94746.33621299882,,,
1.75,-1.1618297674786584,-2.542550142166016,101.97290412076903,0.04290758127925804,-0.02438889873724713,-1.9247587117963753e-16,,,,
1.76,-1.1832010548291203,-2.624933150452007,101.83543738491754,0.03513026842404144,-0.020270258562249753,-1.9222994969011022e-16,94704.84693698384,,,
1.77,-1.1998089483181715,-2.6788138776309562,101.72068633702101,0.026755448299923875,-0.01582801845504146,-1.9206250622825594e-16,,,,
1.78,-1.2111850260986161,-2.702941531711909,101.60770595727833,0.01814948016137525,-0.011256798080919065,-1.9199346546904073e-16,94662.86392645513,,,
1.79,-1.2171016000545594,-2.6973589313928557,101.5097360049316,0.009664826025309497,-0.006744089957462009,-1.9115069572970497e-16,,,,
1.8,-1.2175208765740235,-2.6629792080092916,101.41186051986735,0.0016041303787629943,-0.0024510924192225414,-1.8904591991064701e-16,94620.38889443186,33.49857902962741,-99.33770198970691,575.617112297257
1.81,-1.2126217610267824,-2.602013199030182,101.29825458356937,-0.005713045031710916,0.0014517751745850476,-1.8895503091745332e-16,,,,
1.82,-1.2028375452844955,-2.517979161131194,101.1804769300505,-0.011999415730463692,0.0048110143352892544,-1.8888769545085432e-16,94577.42330572318,,,
1.83,-1.1887919720458857,-2.415212973842415,101.01893959705883,-0.017035003572425187,0.007508761209511808,-1.8881924607508273e-16,,,,
1.84,-1.1712835537956323,-2.2988125055157447,100.85255792368179,-0.02065897523977086,0.009458470749163747,-1.8874573251714995e-16,94533.96871932757,,,
1.85,-1.1512462091972537,-2.174381394715601,100.61782467145636,-0.022776592297768038,0.010608665630825362,-1.8867262863656948e-16,,,,
1.86,-1.1297059197455823,-2.047786392943687,100.37703084290418,-0.023363204261763935,0.01094509516393188,-1.8859881408056005e-16,94490.02704868752,,,
1.87,-1.107734126244595,-1.9248691198481414,100.07917954512433,-0.022463377416309917,0.010490350522289764,-1.8852452364034747e-16,,,,
1.8800000000000001,-1.0864030981804902,-1.8112400121498826,99.7765830058289,-0.02018363451662315,0.009300009936332685,-1.8844963676651654e-16,94445.60080531293,,,
1.8900000000000001,-1.066727867665577,-1.7119227604076386,99.44552359335879,-0.016695861343644387,0.0074645568911551365,-1.8837437138343347e-16,,,,
1.9000000000000001,-1.0496179705680664,-1.6311559976680101,99.11251873784302,-0.012221431483777188,0.005100932786057949,-1.8826933552728224e-16,94400.69305652153,33.49857093809854,-99.33771780567314,594.809842701405
1.9100000000000001,-1.0358384667741385,-1.5721770081676656,98.76306021687455,-0.0070204512937224435,0.002346875651046045,-1.8803105222876958e-16,,,,
1.92,-1.0259852952388258,-1.5371794889029413,98.4130326112764,-0.001377320434041137,-0.0006467566753948956,-1.8794126372550638e-16,94355.30726353395,,,
1.93,-1.020432668113716,-1.5270340800962572,98.08735520990224,0.004409181207654882,-0.0037212177980875017,-1.8786166136176791e-16,,,,
1.94,-1.0193201948782988,-1.5412500176446962,97.76408348467596,0.010035901602461109,-0.00671519263870006,-1.874647705051262e-16,94309.447112702,,,
1.95,-1.022552101878774,-1.578132703800394,97.44412924706688,0.015233108541640153,-0.009484914780442945,-1.8641942278214237e-16,,,,
1.96,-1.0298435059194233,-1.635093761135753,97.12510544576574,0.019772538302501034,-0.01190850145829185,-1.8544038554540602e-16,94263.11626960331,,,
1.97,-1.040733286511922,-1.7086616193507886,96.77411132465947,0.023459354563488924,-0.013881693938312829,-1.8554250144990115e-16,,,,
1.98,-1.0545291869672049,-1.7942106657705263,96.42021238121227,0.02613696004919619,-0.015320388928819676,-1.8561428118350397e-16,94216.31838120073,,,
1.99,-1.0704840622249225,-1.8871106314437966,96.04898138396509,0.027720352226343413,-0.016178550241245294,-1.8577451483435236e-16,,,,
2.0,-1.087666878678803,-1.981901100011834,95.67518259717204,0.028178010320887178,-0.01643845104778467,-1.8577697897026e-16,94169.05744782065,33.498562209897955,-99.33773488705691,615.0816419501922
2.0100000000000002,-1.1051504840160415,-2.0734440852544935,95.27956303706162,0.027545163101691927,-0.0161179175629015,-1.8532269708308576e-16,,,,
2.02,-1.1220212186300236,-2.156959805345954,94.88067561095632,0.025917897075068887,-0.015267204700284333,-1.8257098967157504e-16,94121.33775500522,,,
2.0300000000000002,-1.1374209337868004,-2.228160607157891,94.44996526435813,0.023436644089540472,-0.01396027914945939,-1.8230127001322e-16,,,,
2.04,-1.1506197083667855,-2.2837128883784388,94.01158897873944,0.020291319584452468,-0.012297549116965883,-1.8217094953555613e-16,94073.16378905703,,,
2.05,-1.1610290921941377,-2.3212618941629124,93.48564634118597,0.016699097001539848,-0.010394094119883514,-1.822108974706204e-16,,,,
2.06,-1.1682562161794356,-2.33960552081623,92.95138778824783,0.012894340687714551,-0.008374357543541166,-1.8345368562268909e-16,94024.5404268094,,,
2.07,-1.1721030921350053,-2.338663766130857,92.32158560998113,0.009099424618369163,-0.00635656033582354,-1.8331844097767052e-16,,,,
2.08,-1.1725860513654887,-2.319612427642305,91.68155564968204,0.005549527235939391,-0.004465970324675075,-1.8289045649871324e-16,93975.47323502443,,,
2.09,-1.16993940370749,-2.2847323206830072,90.98148943036509,0.002439225471749769,-0.0028064224293589805,-1.8149155054354462e-16,,,,
2.1,-1.1645472234338552,-2.236940304548133,90.26865270530774,-8.249231446062882e-05,-0.0014576711862017162,-1.8008615276995753e-16,93925.9687190577,33.49855285155815,-99.33775322257917,636.3970977038363
2.11,-1.1569462968978321,-2.179868231395794,89.53532808155748,-0.0019034908424286892,-0.00048000111439622744,-1.8007320067789211e-16,,,,
2.12,-1.1478276187607257,-2.11785293146821,88.79936651401748,-0.002952204436717745,8.798659481310165e-05,-1.800082300951385e-16,93876.03379044146,,,
2.13,-1.1378157770721993,-2.0545636652107824,88.07632540216528,-0.003217569308479176,0.00023959771339452152,-1.799738739254666e-16,,,,
2.14,-1.1277344292630573,-1.9946153420088795,87.35721212977694,-0.0027316515543652714,-8.649807152648318e-06,-1.8017433532283446e-16,93825.6755411406,,,
2.15,-1.1182606096709797,-1.94154556494507,86.6999165184483,-0.0015704468023376153,-0.0006173587984328813,-1.8007657671885007e-16,,,,
2.16,-1.1100746061810822,-1.898683672167497,86.04744416283442,0.0001424308737103497,-0.0015210885060240739,-1.800474043484084e-16,93774.90108201536,,,
2.17,-1.103685378981269,-1.868265194698349,85.42498348788766,0.0022608422739488973,-0.002642314282886178,-1.7995516580049727e-16,,,,
2.18,-1.099498164483533,-1.8517468247612499,84.80477297645471,0.0046064999107415195,-0.003886581581513832,-1.7986793299450368e-16,93723.71706349248,,,
2.19,-1.0977088145591933,-1.8494683604005662,84.19374295319251,0.007019351153537003,-0.005168842834760302,-1.7978666965894853e-16,,,,
2.2,-1.0983684517362509,-1.8608277384556313,83.58395716838956,0.009324871749410941,-0.006396216736633953,-1.7971444387015594e-16,93672.12982829832,33.49854287622061,-99.33777278789337,658.7022115226645
2.21,-1.1013381102857398,-1.8842502824853309,82.99783498669584,0.011371063908173057,-0.007487623439390693,-1.7960124305347967e-16,,,,
2.22,-1.1063885491227978,-1.9178613024288556,82.41347363075711,0.013050275230661396,-0.008385493923952525,-1.7943375500782496e-16,93620.14560468092,,,
2.23,-1.113102653198089,-1.9586640479840032,81.83863064889043,0.014258719035857738,-0.00903418183330869,-1.7938244083037185e-16,,,,
2.24,-1.1209573057474431,-2.003342097612995,81.26503163146339,0.01493943559661298,-0.009402891248860554,-1.7922815823544856e-16,93567.77040619186,,,
2.25,-1.12939551912305,-2.048560096167151,80.7065712266576,0.015083257413754363,-0.009486238371035372,-1.7865141815334315e-16,,,,
2.2600000000000002,-1.1378395448446632,-2.0911039155964275,80.14845560095877,0.014716559823095129,-0.009297756307893895,-1.7832508519743463e-16,93515.01034705067,,,
2.27,-1.145747259139407,-2.1281282946915443,79.64878361062975,0.013903452429886451,-0.008871084416161624,-1.7823765441937327e-16,,,,
2.2800000000000002,-1.1526500187021549,-2.157370713231499,79.15283003910255,0.012736874952327816,-0.008255303960785118,-1.7814228291947965e-16,93461.8712426711,,,
2.29,-1.1581766717190378,-2.1772682859308077,78.71158047046335,0.011329231203964585,-0.0075099474955492174,-1.7804893836219677e-16,,,,
2.3000000000000003,-1.1620830597145604,-2.1870754898893843,78.27361986653429,0.009807610978438725,-0.006702528211150691,-1.7796155209830717e-16,93408.35843272449,33.49853233012882,-99.33779349410273,681.933129292055
2.31,-1.1642839807354788,-2.186982423463334,77.78521795652922,0.008299729869163547,-0.0059005557856838566,-1.7606486554093645e-16,,,,
2.32,-1.164824090940523,-2.1778670268026676,77.28719216823544,0.006915503483772187,-0.005162618346292396,-1.7187315357898225e-16,93354.47694874417,,,
2.33,-1.16382213303301,-2.160784904782613,76.65798490939012,0.005728952678858659,-0.004529557701097406,-1.723112228592304e-16,,,,
2.34,-1.1615558857037067,-2.1378871630435476,76.02096652670879,0.004832606916352019,-0.004049981827430548,-1.7292801465220217e-16,93300.23183129262,,,
2.35,-1.158382315884956,-2.111565406254794,75.38154392500032,0.0042780159702966,-0.0037514512376431277,-1.727907405169591e-16,,,,
2.36,-1.1547084710944286,-2.084295681939926,74.73644873968186,0.004078927579942877,-0.0036417567618391004,-1.727078187011231e-16,93245.62947687613,,,
2.37,-1.1509490026118998,-2.058469457506355,75.85811886531708,0.004221178394041145,-0.003713740774494381,-1.7262359176498825e-16,,,,
2.38,-1.1475192236149816,-2.036269261080376,77.12715547365829,0.004661098055177546,-0.003944471706115997,-1.725444860004451e-16,93190.673769246,,,
2.39,-1.144751916016741,-2.0193131150950734,77.02889061866466,0.005335819378497222,-0.004300763034736682,-1.7245682131392362e-16,,,,
2.4,-1.1428912896291203,-2.008646483177614,76.81655053959012,0.006173341205551778,-0.00474442510934303,-1.723678629672692e-16,93135.35964588558,33.49852123071847,-99.33781530781025,706.0360588361596
2.41,-1.1421315506591219,-2.0049321785270235,73.12116441125437,0.007092128975707242,-0.0052322702345848175,-1.722785089782509e-16,,,,
2.42,-1.14254254038286,-2.0080656448876963,69.13415183468314,0.008000542092676923,-0.005715442725380327,-1.7243314658477028e-16,93079.6924275306,,,
2.43,-1.1440696701146695,-2.017337732369584,64.40336474781527,0.008820798138524976,-0.006152473616287565,-1.7273370601552145e-16,,,,
2.44,-1.1460000453092354,-2.03177418602123,59.60860741397508,0.009487437090608258,-0.006514225894774715,-1.735052361072555e-16,93023.70376029932,,,
2.45,-1.1498059621628363,-2.048688954619048,52.861486259498506,0.009938351701129661,-0.006778823732619214,-1.7341756281204577e-16,,,,
2.46,-1.157746430540406,-2.0644768140611065,45.950919564037555,0.010214597594958012,-0.006905576740935651,-1.732612780240985e-16,92967.43657257478,,,
2.47,-1.1653760241240185,-2.0806985378523333,40.500295993956186,0.010324331419995541,-0.006881699303443284,-1.731210785604985e-16,,,,
2.48,-1.1720877490664932,-2.0959713191971296,35.172670672902946,0.010275837811904043,-0.006720427509776543,-1.7327151456552842e-16,92910.95129509771,,,
2.49,-1.1774506812242864,-2.109087527357784,33.363935309399345,0.010087905021463317,-0.006448386591337283,-1.7329153793705078e-16,,,,
2.5,-1.181205582966904,-2.1192533767855197,31.85272778810966,0.009790472228708332,-0.00610033780369081,-1.7338805955397291e-16,92854.29142263788,33.49850963286079,-99.33783812160267,730.9172201990277
2.5100000000000002,-1.1829972083776188,-2.1254066169968286,31.188841477243827,0.009416071633827844,-0.005715013555960769,-1.732971040925178e-16,,,,
2.52,-1.1834228349838491,-2.128569376191144,30.58638273132481,0.009021238748119192,-0.0053364371353254265,-1.7307683552980894e-16,92797.4703243346,,,
2.5300000000000002,-1.1824399222416968,-2.128411562447331,30.16728194911242,0.008633250392944478,-0.004992782177654227,-1.7291196187594984e-16,,,,
2.54,-1.180324820266272,-2.125349016756319,29.764434099143607,0.008282764740949761,-0.00470870967858707,-1.7278045738106986e-16,92740.50841289242,,,
2.5500000000000003,-1.1774850373984653,-2.1201040083538607,29.356715087983726,0.008000391293044218,-0.004506391523300971,-1.7267709035018138e-16,,,,
2.56,-1.1743221687572203,-2.1134735068902915,28.948410558228122,0.007804431112403099,-0.004395984813311866,-1.7257352390946458e-16,92683.4034910811,,,
2.57,-1.171269882123486,-2.106383337803245,28.680235503514908,0.00770532444443535,-0.004379244329325885,-1.7245669114340468e-16,,,,
2.58,-1.168693798936985,-2.099690224784667,28.426370387501013,0.007702423361701179,-0.004448312386074758,-1.7235079916637485e-16,92626.159567577,,,
2.59,-1.166887276050039,-2.094151657506452,28.053480886009297,0.00778547343296408,-0.0045872871622058215,-1.7220857871710423e-16,,,,
2.6,-1.1660311751739727,-2.090319031529132,27.670828396604772,0.007937160909827157,-0.004775457078884789,-1.7188730835088624e-16,92568.77993535604,33.49849771266213,-99.33786158445713,756.263028236606
2.61,-1.166196309326864,-2.088502651244078,27.265337727604166,0.008137138235038756,-0.004991458549716423,-1.716183801302391e-16,,,,
2.62,-1.1675184838712676,-2.0891871323908324,25.41750543542372,0.008360580445320271,-0.005207885398938877,-1.715391304282144e-16,92511.2607701337,,,
2.63,-1.16954542569747,-2.0915529959865293,26.473707754148094,0.008580308073347993,-0.005407005266046491,-1.714465673487227e-16,,,,
2.64,-1.1722416240423534,-2.095639482756698,26.090501620832473,0.00877857010524529,-0.0055718334525650375,-1.7134582982765209e-16,92453.62124006712,,,
2.65,-1.1754190334166945,-2.101118452553659,25.71286258508485,0.008941286099120375,-0.005691969481289949,-1.7122978045394112e-16,,,,
2.66,-1.178797243125194,-2.107437763664796,25.335807516381223,0.009054209534243086,-0.00575886709794825,-1.7113359084445447e-16,92395.85817220349,,,
2.67,-1.1821345086464667,-2.114080617682885,25.00642832425112,0.009111931325118044,-0.00577180974649487,-1.7103956030566328e-16,,,,
2.68,-1.185216834810226,-2.1205500449906958,24.68108197320398,0.009114169687926759,-0.005734665763101915,-1.7094554121905549e-16,92337.97500940555,,,
2.69,-1.1878535879211145,-2.1263603512553293,24.382963955798086,0.009066362873532139,-0.00565649454331882,-1.7085159944168141e-16,,,,
2.7,-1.1899384628015692,-2.1311979801690346,24.087114506653528,0.008977403881728584,-0.005548171871085116,-1.7075757324748641e-16,92279.97524187098,33.49848552327737,-99.33788558814948,781.9774973536558
2.71,-1.1914165012285458,-2.1348327763141555,23.793732799369746,0.008860385860044999,-0.005423717928691002,-1.7074206942708805e-16,,,,
2.72,-1.1923031607650008,-2.137190947747431,23.499290552902856,0.0087298768643758,-0.005297229072309697,-1.7082301954507465e-16,92221.86209309219,,,
2.73,-1.1926624202427507,-2.138322224109451,23.202967964466055,0.008598546674586352,-0.005180093821080092,-1.707533743257566e-16,,,,
2.74,-1.1926120345455413,-2.138397566825692,22.906527141958712,0.008479957404963392,-0.005083438758726044,-1.706883241315786e-16,92163.63869085697,,,
2.75,-1.1923019759727196,-2.1376887941897946,22.61921394652133,0.008384601189010018,-0.005014759936172528,-1.705970335972179e-16,,,,
2.7600000000000002,-1.19188351739545,-2.136497539359832,22.332725801593515,0.008318800582531354,-0.00497746332977195,-1.7050270922483415e-16,92105.30822045228,,,
2.77,-1.1915005301442028,-2.1351361363120156,22.045220035193264,0.00828579026510173,-0.004971996483117664,-1.7040588760345957e-16,,,,
2.7800000000000002,-1.1913001304369049,-2.1339493728588073,21.757770828052628,0.008285521400299665,-0.004995453682278476,-1.7028749834231088e-16,92046.87372833384,,,
2.79,-1.1913766481166632,-2.133187487122332,21.496096128507684,0.008314201354487865,-0.005042308558945524,-1.7013633609616659e-16,,,,
2.8000000000000003,-1.1917910102342957,-2.1330409717546295,21.236735614215277,0.008365494227367445,-0.005105198162477179,-1.7008302266219436e-16,91988.33827392013,33.4984730834011,-99.3379100962273,808.0254140851692
2.81,-1.1925686189148148,-2.1336331917948534,20.999277645149412,0.008431697881747276,-0.0051758843137832385,-1.7010550637771556e-16,,,,
2.82,-1.1936941264759768,-2.134980150124951,20.763807477761596,0.008504588826317532,-0.005246767019093439,-1.7006322173897872e-16,91929.70462725441,,,
2.83,-1.1951154380186495,-2.1370370302371557,20.522516668701154,0.008575568154519438,-0.005310091961435381,-1.7011290899435789e-16,,,,
2.84,-1.196762990750015,-2.139689398397778,20.280903492873826,0.0086376693288264,-0.005360355350445617,-1.7001722702073096e-16,91870.975157718,,,
2.85,-1.1985390785704766,-2.142760423575882,20.073270477650045,0.008684996991249796,-0.005393477208637854,-1.699326952586944e-16,,,,
2.86,-1.2003486893890212,-2.146051245933341,19.868593791856558,0.0087142503979287,-0.005407977364725504,-1.6986656737470487e-16,91812.15216049393,,,
2.87,-1.2021087926140095,-2.149379266324435,19.655622471938777,0.008724353759955752,-0.005404338254919647,-1.6977869320493213e-16,,,,
2.88,-1.2037411478203368,-2.1525538365529933,19.445377412584314,0.008716064513405787,-0.0053848040379688615,-1.6968303984319412e-16,91753.23769987652,,,
2.89,-1.2051920291616507,-2.155427371130422,19.191874114782866,0.008692191518349589,-0.005353185579198518,-1.6958370709525182e-16,,,,
2.9,-1.2064359260433146,-2.157910584920136,18.93447221187312,0.008656547815511803,-0.005313682952429996,-1.6947611289564604e-16,91694.23390098056,33.49846040722141,-99.33793508000194,834.3793679134959
2.91,-1.207464989202434,-2.1599457688161605,18.670413550921968,0.008614106632249749,-0.005271430731503037,-1.6936923782070612e-16,,,,
2.92,-1.2082986552793176,-2.161536722791177,18.405858968262592,0.008569911850557534,-0.005231089741121227,-1.6926952502028743e-16,91635.14311329753,,,
2.93,-1.2089761519923177,-2.1627360515731375,18.118274016577995,0.008528804867843616,-0.005196740871297178,-1.6917317891631876e-16,,,,
2.94,-1.2095423501023967,-2.163622834972963,17.828842719226262,0.008494338019046317,-0.005171058916663639,-1.6907460165212134e-16,91575.96788431348,,,
2.95,-1.210060002751421,-2.1643153060506557,17.51266628849246,0.008469578549148734,-0.005155948680288095,-1.6898051707523609e-16,,,,
2.96,-1.2105836322699217,-2.1649353741973503,17.19270081127172,0.008455873353161555,-0.005151696054683613,-1.6889918440056885e-16,91516.71094257635,,,
2.97,-1.2111600993116054,-2.1655888878564613,16.870838201026448,0.008453268543894889,-0.005157493059973296,-1.688190338570348e-16,,,,
2.98,-1.2118297111175538,-2.166379585685178,16.54921239621426,0.008460636544493368,-0.0051714780010835015,-1.687241158353476e-16,91457.3751952577,,,
2.99,-1.2126210651870002,-2.1674124825541976,16.21529357694448,0.008475661041052332,-0.005190970959781237,-1.6863080958722268e-16,,,,
3.0,-1.2135363088554023,-2.1686871008018143,15.880554671367719,0.008495766993545617,-0.005213345363967368,-1.6854242504174726e-16,91397.96365526182,33.49844750749419,-99.33796051432374,861.0149163153837
3.0100000000000002,-1.2145703673560115,-2.1702159656595046,15.549021330613842,0.008517914181298611,-0.00523559340741408,-1.684581486893164e-16,,,,
3.02,-1.2157022145411562,-2.1719770207036744,15.217974523185507,0.008539284934078102,-0.005255244162709459,-1.6833919769808535e-16,91338.4793741774,,,
3.0300000000000002,-1.2169090734651098,-2.173931960694688,14.896121209566672,0.008557816670045536,-0.00527060828982387,-1.6823581287998354e-16,,,,
3.04,-1.2181561805288896,-2.1760164638074766,14.575242398234833,0.00857153012170756,-0.00528031846051249,-1.6813752044036825e-16,91278.92536915746,,,
3.0500000000000003,-1.2194092324336072,-2.178163291239669,14.274570500991455,0.008579430498368758,-0.005283976724263479,-1.6803401569983855e-16,,,,
3.06,-1.220640811657084,-2.180309912000407,13.975785423115843,0.008581269324379184,-0.005281844936164381,-1.679302747631655e-16,91219.30463181983,,,
3.0700000000000003,-1.2218249805452617,-2.182395015234525,13.678126563159164,0.008577479597059312,-0.005274819186427553,-1.6783382027370238e-16,,,,
3.08,-1.2229454446512733,-2.1843727056491833,13.380736191083225,0.008569093459284673,-0.005264256858748694,-1.6773601111119856e-16,91159.6199436646,,,
3.09,-1.2239954128889527,-2.1862160936066366,13.087649447465726,0.008557335269265104,-0.0052515430721166165,-1.6763340338240492e-16,,,,
3.1,-1.2249748966895595,-2.1879126959376314,12.795103244537136,0.00854391802739471,-0.005238406607787113,-1.6753100216204955e-16,91099.87399638804,33.49843440023299,-99.33798636703456,887.9025874087374
3.11,-1.2258927152856613,-2.1894688148246355,12.542238210115176,0.008530471465177247,-0.005226344590093,-1.674287434010345e-16,,,,
3.12,-1.2267641217997551,-2.1909063233259554,12.292887188261922,0.00851844894651486,-0.005216563709747822,-1.6732776290830196e-16,91040.06944982008,,,
3.13,-1.2276070383249365,-2.1922582261715267,12.086770211797456,0.008508977111700662,-0.005209878507387223,-1.6722748553053649e-16,,,,
3.14,-1.2284411199509395,-2.193563580003126,11.88444629223689,0.008502773345423745,-0.005206660934780941,-1.6713055008499021e-16,90980.20861255062,,,
3.15,-1.2292850123587313,-2.1948629548780683,11.696691422630018,0.008500095798303083,-0.005206840522244683,-1.6703459090167771e-16,,,,
3.16,-1.2301530100760165,-2.1961902725984626,11.510288961026738,0.008500783656331681,-0.00520999626395934,-1.6693541672134687e-16,90920.29343252062,,,
3.17,-1.2310557945650968,-2.1975733718120196,11.322337098396755,0.00850430505368485,-0.005215414830570192,-1.6683813826006554e-16,,,,
3.18,-1.2319991402646655,-2.1990324522629914,11.134386511677938,0.0085099204714376,-0.005222227220142316,-1.667395478175214e-16,90860.32564809111,,,
3.19,-1.232983705266558,-2.2005759751008283,10.91376070502487,0.008516714274092898,-0.0052294924282337025,-1.6664120389320975e-16,,,,
3.2,-1.234004778372468,-2.2022016426027706,10.690528025852746,0.008523742734570511,-0.005236330724209123,-1.6654349682191962e-16,90800.30706227705,33.49842110169225,-99.33801260566699,915.0128777578503
3.21,-1.2350546394452164,-2.2038982886737126,10.414746321919523,0.008530145587511575,-0.005242012211225858,-1.6644630088528931e-16,,,,
3.22,-1.236122890573321,-2.2056471574086176,10.134714486693817,0.008535257021129361,-0.005246040897694606,-1.6635055864492137e-16,90740.23974466872,,,
3.23,-1.2371981838596502,-2.207427049064565,9.758993924082397,0.008538615432556637,-0.005248153973112299,-1.6625608451286595e-16,,,,
3.24,-1.238270119491379,-2.2092142919624784,9.375215581209533,0.008540041658396936,-0.005248353055504868,-1.661590568835407e-16,90680.12629956297,,,
3.25,-1.2393300696440719,-2.2109888000876463,8.871698662574731,0.008539591984197197,-0.0052468506886195,-1.6606248532821717e-16,,,,
3.2600000000000002,-1.2403703575060159,-2.2127321968336844,8.358476963965725,0.008537540462405978,-0.005244047851597626,-1.6596626607082496e-16,90619.97015332368,,,
3.27,-1.2413875776946792,-2.21443396865786,7.8130021619554935,0.008534315056916871,-0.00524042862998754,-1.6587010530192882e-16,,,,
3.2800000000000002,-1.2423833209344757,-2.2160852014893333,7.265251371361237,0.008530465327390116,-0.005236542941359848,-1.6577100429911495e-16,90559.77567192265,,,
3.29,-1.2433568560597335,-2.2176906669751926,6.67494303399063,0.00852650814971129,-0.005232888650617872,-1.6567513129157904e-16,,,,
3.3000000000000003,-1.2443149224283765,-2.2192539961364366,6.081521159250907,0.008523011283684448,-0.005229936575088644,-1.6557904636850266e-16,90499.5476827321,33.49840762551074,-99.33803920286763,942.3210719573992
3.31,-1.2452626480274926,-2.220785760972614,5.46513595110912,0.008520337893008012,-0.005227964553309703,-1.6548300449151124e-16,,,,
3.3200000000000003,-1.246204879453439,-2.2223016851959243,4.847345780906574,0.00851879096708396,-0.005227156307431664,-1.6538749875374812e-16,90439.29133273438,,,
3.33,-1.2471505951831992,-2.223812796423717,4.164861088373768,0.008518442184178989,-0.005227497157446792,-1.6529150515273306e-16,,,,
3.34,-1.2481038771440969,-2.225333189441806,3.4775198949719055,0.008519332789780211,-0.005228905356724958,-1.6519549294046645e-16,90379.0121623248,,,
3.35,-1.2490697053630642,-2.226874112640942,2.5812432257096725,0.008521201525382001,-0.005231089200415725,-1.6509833745712865e-16,,,,
3.36,-1.2500488129990794,-2.2284397219564696,1.6680561685451034,0.008523827121928979,-0.005233781609364904,-1.649941534197248e-16,90318.7165024685,,,
3.37,-1.2510429515762236,-2.230034474008182,0.5190356964948458,0.008526941754994634,-0.005236697134548227,-1.6489574936856312e-16,,,,
3.38,-1.2520486581335282,-2.231655341977004,-0.6489352329032982,0.008530281165611161,-0.005239588167262699,-1.6480024226299415e-16,90258.4122719671,,,
3.39,-1.2530650563604107,-2.233300852595025,-2.0453804860817475,0.008533529985177158,-0.00524218119574719,-1.6470535806931953e-16,,,,
3.4,-1.2540888839783149,-2.234960815479284,-3.4598479414500174,0.008536509780790968,-0.005244336992439197,-1.6461006787282613e-16,90198.10945960927,33.49839399852319,-99.33806610461474,969.7812203630174
3.41,-1.2551151348226246,-2.2366312417916503,-4.972970099653548,0.008539127011111938,-0.005245997653218944,-1.6451434064176859e-16,,,,
3.42,-1.2561424104493826,-2.2383011531410637,-6.492909555926034,0.008541366410253257,-0.005247185663584812,-1.644213414652461e-16,90137.81986941247,,,
3.43,-1.2571634388583093,-2.2399690129588237,-7.947981714942374,0.008543260835773225,-0.005247975938785606,-1.6432704571866534e-16,,,,
3.44,-1.2581841186466685,-2.241621765638508,-9.39600065787738,0.008545021085197104,-0.005248567344264638,-1.6422790186238628e-16,90077.55646305319,,,
3.45,-1.2591949116288443,-2.2432657762494976,-10.692293746316006,0.008546674485644355,-0.005249051442489766,-1.6413258498211092e-16,,,,
3.46,-1.2602027339596495,-2.2448953042791944,-11.974259464931425,0.008548512140031366,-0.005249676673151777,-1.6403476836458384e-16,90017.33173786984,,,
3.47,-1.261204894561165,-2.2465149874720174,-13.093130139956724,0.008550607924561918,-0.005250543049938745,-1.6393990589260955e-16,,,,
3.48,-1.262202873177651,-2.248128797937235,-14.196862600182584,0.008553083071519132,-0.005251757946561293,-1.6384870256805407e-16,89957.15680114282,,,
3.49,-1.2632002214655063,-2.2497382671479094,-15.15233812995765,0.008556057528433124,-0.005253415154380839,-1.6375380711947276e-16,,,,
3.5,-1.2641984797114383,-2.2513495530310146,-16.094112327817406,0.008559489732168104,-0.0052554863852046045,-1.6365691732050658e-16,89897.04111326374,33.49838027854454,-99.33809319407496,997.2977491887889
3.5100000000000002,-1.265199998689019,-2.252965631074597,-16.971702779335494,0.008563412132055165,-0.005257972779072454,-1.6356186620518986e-16,,,,
3.52,-1.2662052700688613,-2.2545901513900697,-17.842794979405923,0.00856773335586016,-0.005260790711746475,-1.634675048049708e-16,89836.99288786984,,,
3.5300000000000002,-1.2672159543752568,-2.2562246152240615,-18.688232960095718,0.008572387704749402,-0.005263861756577996,-1.6337317492832915e-16,,,,
3.54,-1.2682323571184249,-2.257870319945578,-19.53047548866238,0.008577252600541938,-0.0052670706785474765,-1.6327961819830555e-16,89777.01956000863,,,
3.5500000000000003,-1.2692522200297491,-2.2595277391747226,-20.29954533780367,0.008582229413183642,-0.005270323193899399,-1.631875501396387e-16,,,,
3.56,-1.2702799394516346,-2.261190107184911,-21.061465983081874,0.008587286741205022,-0.005273571533007406,-1.63095811304942e-16,89717.12819078952,,,
3.5700000000000003,-1.27130928696744,-2.2628628920521976,-21.82971979277308,0.008592307704371308,-0.005276723337634077,-1.6300334549866082e-16,,,,
3.58,-1.2723426950630372,-2.2645395957081766,-22.597570600336017,0.008597327032073982,-0.005279790861912492,-1.6291041501362887e-16,89657.32531796828,,,
3.59,-1.2733762304980887,-2.266216827656248,-23.08532523028006,0.008602256701613955,-0.005282721302236889,-1.628168122653871e-16,,,,
3.6,-1.2744101539783492,-2.267895750044534,-23.548675225040242,0.008607153821917365,-0.00528556038804724,-1.627229898316719e-16,89597.6169956135,33.49836653777825,-99.3381203251471,1024.7530894986025
3.61,-1.275443850563417,-2.269575214098074,-24.011971723625933,0.008612018457133898,-0.005288325207322671,-1.6262922409344293e-16,,,,
3.62,-1.2764767570391498,-2.2712536681525872,-24.474696279477534,0.00861684950214931,-0.005291033471247549,-1.6253599073230207e-16,89538.00753894015,,,
3.63,-1.2775092818276164,-2.2729328767104535,-25.122883453155872,0.008621675958129642,-0.005293725664392062,-1.6244276498572958e-16,,,,
3.64,-1.2785407492716159,-2.2746104547252104,-25.786021257275067,0.00862653170706016,-0.005296442546971608,-1.6234965996976055e-16,89478.50098028088,,,
3.65,-1.279570612649731,-2.2762863945345724,-26.415405823257696,0.00863143282421067,-0.005299209894052129,-1.6225651345864025e-16,,,,
3.66,-1.2806022120864327,-2.277957777334401,-27.041132739371033,0.008636466974271994,-0.00530209229345195,-1.6216410707234263e-16,89419.10246055819,,,
3.67,-1.281632383862728,-2.2796336315927386,-27.89554020802902,0.008641633133622486,-0.005305093760806892,-1.6207121741461011e-16,,,,
3.68,-1.2826656564509782,-2.2813063890055307,-28.76829155451156,0.008647003689556716,-0.005308258276397451,-1.6197848737642984e-16,89359.8174524179,,,
3.69,-1.2836991553208912,-2.2829793003301884,-29.552191919394787,0.008652516414761719,-0.0053115417700646626,-1.61885839351381e-16,,,,
3.7,-1.2847340326052277,-2.284654181605914,-30.32753261663825,0.008658252318307007,-0.0053149838511659985,-1.6179393730342917e-16,89300.65276460531,33.49835282401147,-99.33814740101965,1052.070413175594
3.71,-1.2857706119835686,-2.286328011272469,-30.827719880308475,0.008664238189999363,-0.0053185889570131,-1.6170181172516947e-16,,,,
3.72,-1.286808874643256,-2.2880060358853602,-31.30386494206174,0.008670453695008658,-0.005322333713178755,-1.6160962503959805e-16,89241.61461653338,,,
3.73,-1.2878491483159529,-2.2896883618374777,-31.703845223703755,0.008676873964888305,-0.0053261918241771355,-1.6151757915237554e-16,,,,
3.74,-1.2888925582245323,-2.29137587823946,-32.09686707411487,0.008683483116044742,-0.00533014538690347,-1.6142557675942246e-16,89182.7072000974,,,
3.75,-1.2899377495416942,-2.2930687581997136,-32.42007543587167,0.008690221578917039,-0.005334153332176878,-1.6133362922136893e-16,,,,
3.7600000000000002,-1.2909849364319785,-2.294767927904239,-32.73696780600586,0.008697030747335905,-0.005338177025111864,-1.612416368433164e-16,89123.93360926151,,,
3.77,-1.292040461236816,-2.2964991533229084,-32.9889906418138,0.008703639124955033,-0.005342046303853752,-1.6115023537585674e-16,,,,
3.7800000000000002,-1.2930921285694423,-2.298212750312885,-33.23526759191298,0.008710064911414043,-0.005345785031790085,-1.6105895868123193e-16,89065.30384551304,,,
3.79,-1.2941413020347943,-2.2999137888518932,-33.42860006966275,0.008716590992585703,-0.005349570333941673,-1.6096789956424696e-16,,,,
3.8000000000000003,-1.295191164275767,-2.301616093639051,-33.61722153773537,0.008723213393524328,-0.005353403680049794,-1.6087712803968278e-16,89006.80498684393,33.49833917690479,-99.3381743412333,1079.1866432543761
3.81,-1.2962413046666896,-2.303320042153535,-33.74048601000994,0.008729930639337476,-0.005357290968466005,-1.6078631993370886e-16,,,,
3.8200000000000003,-1.2972922645733826,-2.3050267264165956,-33.85808870097683,0.008736736773861083,-0.00536123458664389,-1.6069564573859318e-16,88948.44569719961,,,
3.83,-1.2983438343288438,-2.3067358821342636,-33.926488845297776,0.008743609417843627,-0.005365225117928038,-1.6060509918833883e-16,,,,
3.84,-1.2993965888694368,-2.308448178947082,-33.99067681555447,0.008750538999922406,-0.005369260465913049,-1.60514717165033e-16,88890.22673851976,,,
3.85,-1.3004504366176337,-2.310163401312274,-34.02594509289824,0.008757497920082766,-0.005373325401877989,-1.6042443444635677e-16,,,,
3.86,-1.3015053455101135,-2.311882022482253,-34.05876845981229,0.008764465449890567,-0.005377407297771935,-1.6033458357716047e-16,88832.14844141253,,,
3.87,-1.302561651207271,-2.313603492927568,-34.10539183083028,0.008771422392824125,-0.0053814929318551355,-1.6024468130621071e-16,,,,
3.88,-1.3036191128982373,-2.3153273563916033,-34.153186921907206,0.008778351876980148,-0.005385569530652925,-1.6015444184469424e-16,88774.21088963695,,,
3.89,-1.304677597381539,-2.31705311990774,-34.20475265902357,0.00878524844661866,-0.0053896314106048945,-1.6006525263830723e-16,,,,
3.9,-1.305737729478909,-2.318779350745629,-34.256632915376905,0.008792124301660894,-0.005393682347801518,-1.5997565698311975e-16,88716.41416885756,33.49832561908969,-99.33820109979308,1106.0672634099878
3.91,-1.3067987350254102,-2.3205101509143002,-34.5893125110397,0.008798949489875427,-0.005397700732009638,-1.5988562033285275e-16,,,,
3.92,-1.3078599654091607,-2.322236335542584,-34.54980544055066,0.008805769493519789,-0.005401711436782384,-1.5979642525984403e-16,88658.75897206661,,,
3.93,-1.3089217696948618,-2.3239626733032104,-34.51043344453476,0.008812623002276612,-0.005405736086177552,-1.5970745893243394e-16,,,,
3.94,-1.31040450610903,-2.3209570834741893,-34.47219134282348,0.008871961879468215,-0.005444411947886693,-1.5952493245559643e-16,88601.24572777752,,,
3.95,-1.3157844392098852,-2.3366999467071903,-34.43373499172407,0.008935034630284175,-0.0054856348856165355,-1.5960157506644598e-16,,,,
3.96,-1.3224719318583036,-2.3595473020624538,-34.394692272065726,0.008774876856428783,-0.005379216044935165,-1.5960069528408488e-16,88543.87384544227,,,
3.97,-1.3281482853097208,-2.377678743757136,-34.35621466496999,0.008401047179786385,-0.005131493543724872,-1.5956086563238543e-16,,,,
3.98,-1.332447946084418,-2.3899668107627896,-34.31838619638818,0.007871932240717514,-0.004781201327530707,-1.5931271137051265e-16,88486.6427423083,,,
3.99,-1.335121147371542,-2.3958301686150154,-34.28123874715556,0.0072715042106756824,-0.004383754150352622,-1.5921056037435165e-16,,,,
4.0,-1.336175873786596,-2.395624169561174,-34.244725885501026,0.006674567342766913,-0.00398851454017956,-1.591225238037924e-16,88429.55184475961,33.49831215706885,-99.33822766346567,1132.7024110985437
4.01,-1.3357947724137853,-2.39032744178505,-34.20874957492138,0.006147394901901472,-0.0036392411634612273,-1.5902651706375107e-16,,,,
4.0200000000000005,-1.3342537603628084,-2.381143924165512,-34.17319680872304,0.005733332430474202,-0.00336520184840227,-1.5893058549612053e-16,88372.60056489192,,,
4.03,-1.3319543684342372,-2.369736635531299,-34.137917052784104,0.0054680357065958925,-0.003189579451721514,-1.5884625994715065e-16,,,,
4.04,-1.329339146262756,-2.357824059412949,-34.10275969445749,0.005364155435671146,-0.0031206210077084694,-1.5875926567073907e-16,88315.78831483246,,,
4.05,-1.326816412594859,-2.3469030979998395,-34.06759754853353,0.005412775464887239,-0.0031524250722001186,-1.5867228872089582e-16,,,,
4.0600000000000005,-1.324732229578124,-2.3381727727204042,-34.03096185419805,0.005589993905186358,-0.0032691754268348965,-1.5858549485184948e-16,88259.11449293228,,,
4.07,-1.3233396289031543,-2.3324361602969574,-33.99377427596172,0.005860997603358111,-0.003447851969667593,-1.5849887415774375e-16,,,,
4.08,-1.3227833245619878,-2.3300657299368748,-33.9564091484487,0.0061853848122489456,-0.0036617486114203963,-1.584133899628213e-16,88202.57850344463,,,
4.09,-1.323098015570229,-2.331019156297412,-33.91887798613981,0.006522358998107545,-0.0038839051165371003,-1.5831759814701789e-16,,,,
4.1,-1.3242292415602037,-2.3349338209917536,-33.88202222777619,0.0068345034391223,-0.004089600512262582,-1.58230867457623e-16,88146.17975299327,33.49829878998215,-99.33825403436109,1159.0924194065608
4.11,-1.3260302986222214,-2.3411338593778153,-33.846032935247486,0.007092209328860481,-0.004259279831713843,-1.5813302692462693e-16,,,,
4.12,-1.3283063480204147,-2.3488041193490043,-33.810041610773865,0.007275620964332985,-0.004379835475279163,-1.5798195612837382e-16,88089.91766389606,,,
4.13,-1.330838160718468,-2.357079221441888,-33.77412452452392,0.007374657569177833,-0.004444623507913737,-1.5789103368772027e-16,,,,
4.14,-1.3334054952453895,-2.3651368569583946,-33.73835197930835,0.007390276994354289,-0.004454284785932133,-1.578067691613127e-16,88033.79167704223,,,
4.15,-1.3358141293792185,-2.3722884378022924,-33.702781000316875,0.007332022918100566,-0.00441514112971,-1.5772024952449563e-16,,,,
4.16,-1.3379109338990434,-2.3780265884811254,-33.66631549097508,0.0072158704375169785,-0.004337759886293997,-1.5763545050371847e-16,87977.80123972592,,,
4.17,-1.3395967959885957,-2.38206461469898,-33.629551698810786,0.007062093735664697,-0.004235543693510313,-1.5755196438578522e-16,,,,
4.18,-1.3408277047363766,-2.38432790702801,-33.59306301813059,0.0068922824199066585,-0.0041227617113382764,-1.5746718784360874e-16,87921.94579574402,,,
4.19,-1.3416186295767685,-2.3849634020174886,-33.55683170558367,0.006728105243391878,-0.0040137242777865,-1.573846045284243e-16,,,,
4.2,-1.3420281408206665,-2.3842597232193343,-33.521312628639016,0.006586001484093949,-0.003919288499670685,-1.5731204434003725e-16,87866.22477408272,33.49828551722338,-99.33828021319462,1185.2409613025166
4.21,-1.3421331419744265,-2.3825502005161083,-33.487181226164566,0.006476930401790727,-0.0038467166308251964,-1.5725889645071184e-16,,,,
4.22,-1.3420420202467975,-2.3802784917343827,-33.45319441007061,0.006409919646297446,-0.00380195654245511,-1.5716666392817142e-16,87810.63762508755,,,
4.23,-1.3418794940643741,-2.377923266187651,-33.4193096367513,0.006387700769825022,-0.003786798244541115,-1.5707147750961053e-16,,,,
4.24,-1.3417489553508941,-2.3758588044476756,-33.385494662736896,0.006407144937183524,-0.003799167196143221,-1.5703987066704013e-16,87755.18378763564,,,
4.25,-1.3417402560010787,-2.374393340934864,-33.35172369629342,0.006461453461628545,-0.003834565525950763,-1.5709665533260394e-16,,,,
4.26,-1.3419107863129192,-2.3737090352693926,-33.317312083288755,0.006542734942314855,-0.0038877716154158823,-1.57011308248555e-16,87699.8627183726,,,
4.2700000000000005,-1.3423085122273997,-2.3739358639300217,-33.28195110891884,0.006639029917004823,-0.003950884014136107,-1.569368904024546e-16,,,,
4.28,-1.3429434241321099,-2.375068268581906,-33.24662356583879,0.006739947799087768,-0.004017031077228173,-1.5686248160028887e-16,87644.6738744157,,,
4.29,-1.3438025502667705,-2.377015646224131,-33.21133897201392,0.006835296812806382,-0.004079478461245468,-1.567799456660096e-16,,,,
4.3,-1.3448521454872941,-2.3796183342727413,-33.17611240315518,0.006916909792151392,-0.004132823934153496,-1.5669708295862166e-16,87589.61670726724,33.49827233639893,-99.338306205,1211.1515522707148
4.3100000000000005,-1.3460409815005194,-2.3826595451971038,-33.14252343094122,0.006978653336605829,-0.004173024174844726,-1.5661437288611043e-16,,,,
4.32,-1.3473170809983956,-2.385930930004056,-33.109078619548015,0.007017283846801829,-0.004197959001649877,-1.5653182075861425e-16,87534.6906749001,,,
4.33,-1.3486193353713074,-2.389201527059394,-33.075738620524525,0.007032199660377177,-0.0042072235840293,-1.5644942891653644e-16,,,,
4.34,-1.3498896390711923,-2.392262355426789,-33.04252081548072,0.0070254380539756895,-0.004202169006551213,-1.5636793891349878e-16,87479.89525320487,,,
4.3500000000000005,-1.3510843629693627,-2.394967896453441,-33.00943662119721,0.007001274836488096,-0.004185620000754369,-1.5630666764250805e-16,,,,
4.36,-1.3521737044270672,-2.397228366389646,-32.97649239963764,0.006964974749160776,-0.004161058097145957,-1.562721747279608e-16,87425.22991128716,,,
4.37,-1.35314274086599,-2.399009256302282,-32.9421100722381,0.006921735161426245,-0.004131921003995993,-1.5619415702114683e-16,,,,
4.38,-1.3539874380011254,-2.400320347495719,-32.907871038778545,0.006877633208725341,-0.004102223142997334,-1.5611261465518748e-16,87370.69413515473,,,
4.39,-1.3547182299743545,-2.4012220743993202,-32.873774957902846,0.006837914294284546,-0.004075428967606088,-1.5603111360837863e-16,,,,
4.4,-1.3553563983220842,-2.4018103203095382,-32.83981216414113,0.006806586928744949,-0.004054185361048785,-1.5594971119676994e-16,87316.28739257963,33.49825924609111,-99.33833201248557,1236.8276271562615
4.41,-1.3559295729328589,-2.402199471284515,-32.80597162462633,0.006786389426267154,-0.004040299465614934,-1.5586852404114729e-16,,,,
4.42,-1.356464559369176,-2.4024942408143217,-32.77224349562612,0.006778466596479599,-0.004034526959448426,-1.5578750124379945e-16,87262.00915660683,,,
4.43,-1.3569939483992741,-2.402816987938715,-32.738616552944634,0.0067829722474175465,-0.004036965024773873,-1.5570671215497558e-16,,,,
4.44,-1.3575441675691828,-2.4032614971061017,-32.70508236568657,0.006798705567499189,-0.004046818411007336,-1.55626036988251e-16,87207.85890732898,,,
4.45,-1.3581388601828974,-2.4039066724631657,-32.67163401861767,0.006823347305653634,-0.0040625516616797,-1.5554580431236597e-16,,,,
4.46,-1.3587920151950432,-2.4047927913370297,-32.63972803888013,0.0068539833857007215,-0.004082243114231389,-1.55455346379011e-16,87153.83611869314,,,
4.47,-1.3595108533344908,-2.405934276532967,-32.60797093685271,0.006887527818245214,-0.004103851420009918,-1.5535052842823712e-16,,,,
4.48,-1.3602954900553708,-2.4073207175142324,-32.57628596830409,0.006921298434586656,-0.0041256027514004956,-1.552689780047709e-16,87099.94028048232,,,
4.49,-1.361140112399419,-2.4089192022496677,-32.54467619688275,0.0069525093686512275,-0.004145656855418942,-1.5519050353490075e-16,,,,
4.5,-1.362033106535936,-2.4106776685181606,-32.51314625411059,0.0069790057525579,-0.004162592671872709,-1.5510986329775262e-16,87046.1708940603,33.49824624442296,-99.33835763948039,1262.2725184157248
4.51,-1.362961345717625,-2.4125423185438244,-32.48170075164792,0.006999576885794502,-0.004175609541358058,-1.5503018723818053e-16,,,,
4.5200000000000005,-1.3639077159385964,-2.4144463528812814,-32.454210329019794,0.007013481155079722,-0.004184219540061974,-1.5495071040135658e-16,86992.52746490308,,,
4.53,-1.3648564900706646,-2.4163317303070246,-32.42744385707301,0.0070208640347680555,-0.0041885200081537375,-1.548713842982063e-16,,,,
4.54,-1.3657944292581128,-2.418151937912012,-32.40074707543306,0.00702242732022571,-0.00418897561580189,-1.547950763932443e-16,86939.00951332854,,,
4.55,-1.366710148367738,-2.419869168724036,-32.37412287063317,0.007019324632092807,-0.00418634992375741,-1.54714841474573e-16,,,,
4.5600000000000005,-1.3675958675275166,-2.4214605039451684,-32.346063900071684,0.007013074406525844,-0.004181647058735746,-1.5463584852565522e-16,86885.61658791412,,,
4.57,-1.3684480680244944,-2.4229195094315674,-32.313659176657396,0.00700533090988276,-0.004175958496229592,-1.5456412191221877e-16,,,,
4.58,-1.3692668872337608,-2.4242529975206635,-32.281365607112505,0.0069976667010112955,-0.0041703239219011414,-1.5450089666145593e-16,86832.34822271521,,,
4.59,-1.370055231484853,-2.4254765774890883,-32.24918118160101,0.006991287792199169,-0.004165541349361416,-1.5442362977238478e-16,,,,
4.6000000000000005,-1.3708189346368944,-2.4266167670833227,-32.21710289189215,0.006987392895836367,-0.004162401152764617,-1.543453704056612e-16,86779.2039327023,33.49823332986802,-99.33838308900448,1287.4894105867015
4.61,-1.3715655404037856,-2.427704550877339,-32.18604238455187,0.006986709792269805,-0.004161383559212507,-1.5426721903472724e-16,,,,
4.62,-1.372303328762202,-2.4287720477059658,-32.15562167917697,0.006989564975439973,-0.004162703609651398,-1.5418920792885362e-16,86726.18322198724,,,
4.63,-1.373040636638887,-2.4298500889292782,-32.12528772836726,0.006995911270202538,-0.004166329647550798,-1.5411134499647999e-16,,,,
4.64,-1.3737845502059742,-2.4309635581318627,-32.09503804852123,0.007005377400338131,-0.00417201581865496,-1.5403336428251976e-16,86673.28560718002,,,
4.65,-1.3745411887825014,-2.432132632319439,-32.06487062381008,0.007017315425983147,-0.00417933385670612,-1.5395495745447228e-16,,,,
4.66,-1.3753140645263107,-2.4333677711233204,-32.0347843229397,0.007031067176853962,-0.004187847877685129,-1.5387756592599204e-16,86620.51061278513,,,
4.67,-1.3761056981030377,-2.4346747013535537,-32.00419102662543,0.007045714068490991,-0.004196951249902509,-1.5380030777062652e-16,,,,
4.68,-1.3769161566052095,-2.4360504538237215,-31.972838047885983,0.007060438728911363,-0.004206103183193335,-1.537227966292161e-16,86567.85776698138,,,
4.69,-1.3777438630031285,-2.4374862480702073,-31.941575550454882,0.007074500053263587,-0.004214814425725781,-1.5364449533743495e-16,,,,
4.7,-1.3785862931238158,-2.4389705230400285,-31.91040428704675,0.007087358804859287,-0.004222730538818536,-1.535671767793117e-16,86515.32659127869,33.49822050088063,-99.33840836417225,1312.4812683926248
4.71,-1.3794393347734455,-2.4404862012825306,-31.879325456182112,0.00709855946600789,-0.004229549933993142,-1.5349041457475263e-16,,,,
4.72,-1.3802988752313676,-2.4420172818001804,-31.852367668077775,0.0071079194622542825,-0.004235152119143541,-1.5341383914886813e-16,86462.91661077901,,,
4.73,-1.3811608466223995,-2.443548556903788,-31.82708815483311,0.007115415946023166,-0.0042395222767382815,-1.533372572275211e-16,,,,
4.74,-1.382021065178663,-2.44506509596256,-31.80186842078026,0.007121204612944047,-0.004242763630701965,-1.5326095239281727e-16,86410.62737220677,,,
4.75,-1.3828762598772646,-2.4465559573971776,-31.77670919815929,0.007125594152286895,-0.004245080458916928,-1.5318555296814112e-16,,,,
4.76,-1.3837241134876113,-2.448014111601228,-31.751610853709295,0.0071289879171680766,-0.004246739561175976,-1.5311254359371467e-16,86358.45844234522,,,
4.7700000000000005,-1.384563427784489,-2.4494368023105246,-31.72106738152073,0.007131816588981738,-0.004248025256693925,-1.5304018229257808e-16,,,,
4.78,-1.3853938646920727,-2.45082445804818,-31.690569939454775,0.007134504786005638,-0.00424921760356694,-1.5296448218407462e-16,86306.40939264637,,,
4.79,-1.3862159958102196,-2.452180872987677,-31.660167371599655,0.007137480585244923,-0.004250599853898279,-1.528882038114977e-16,,,,
4.8,-1.3870311903365877,-2.453512398731569,-31.629858668152945,0.007141068242038599,-0.004252386052120456,-1.5281332457949112e-16,86254.47976521109,33.49820775596708,-99.33843346796547,1337.251073352246
4.8100000000000005,-1.3878414052751238,-2.454827227997542,-31.599973041294064,0.007145506894386847,-0.004254734183619477,-1.527391957540241e-16,,,,
4.82,-1.3886486428297622,-2.45613327890674,-31.571213375316706,0.0071509220946226375,-0.0042577269387831605,-1.526640650424756e-16,86202.66909657889,,,
4.83,-1.389455325835701,-2.4574396905564035,-31.542535250799197,0.007157354037341488,-0.004261390813396486,-1.5258910074269284e-16,,,,
4.84,-1.3902635314907787,-2.4587539076416878,-31.513937696899944,0.007164737422747748,-0.0042656825525175055,-1.5251446179505166e-16,86150.97693391694,,,
4.8500000000000005,-1.391075058691865,-2.460082048867152,-31.485419876194772,0.007172931995231002,-0.004270509380291424,-1.5244013444190494e-16,,,,
4.86,-1.3918912617577757,-2.461428371800669,-31.456981130403552,0.007181742595195121,-0.004275742266975539,-1.5236601369081014e-16,86099.40283015631,,,
4.87,-1.392712997054949,-2.4627951584450702,-31.428620985541297,0.007190940824334618,-0.004281230254921715,-1.5229213517371557e-16,,,,
4.88,-1.393540575764851,-2.4641826619051272,-31.399184564454035,0.007200294761385451,-0.0042868200058488685,-1.5221780187013977e-16,86047.94634133155,,,
4.89,-1.3943738198828666,-2.4655893486557616,-31.369649552527257,0.007209579035037721,-0.004292362640705215,-1.5214358263758453e-16,,,,
4.9,-1.3952121640530282,-2.4670124265976403,-31.34020128380624,0.0072186149979728605,-0.004297740307516981,-1.5206950015078814e-16,85996.6070205543,33.498195093681176,-99.3384584032874,1361.8016441561151
4.91,-1.3960546649686352,-2.46844780910166,-31.31083979578159,0.007227251293099109,-0.004302853194168047,-1.5199620265841996e-16,,,,
4.92,-1.3969002143134754,-2.4698910584018217,-31.281793453429277,0.0072354026460929284,-0.004307644894444586,-1.5192363919234135e-16,85945.38441747527,,,
4.93,-1.3977478461887811,-2.4713384971204917,-31.257875459321298,0.007243042226525952,-0.004312097583837493,-1.5185010186443735e-16,,,,
4.94,-1.3985962758149793,-2.4727853745621147,-31.234011577469623,0.007250173858729952,-0.004316213966972187,-1.5177682053624867e-16,85894.27810221179,,,
4.95,-1.3994445956147217,-2.474228533678065,-31.21020188736691,0.007256849854158223,-0.004320028601178946,-1.5170321978579347e-16,,,,
4.96,-1.400291919350272,-2.4756650432342027,-31.18644645756346,0.007263162294690731,-0.004323602393504691,-1.516296559002322e-16,85843.2876666669,,,
4.97,-1.4011376765867383,-2.4770932287726954,-31.161720964891234,0.007269224904136754,-0.0043270104999287955,-1.515561740409083e-16,,,,
4.98,-1.4019815695272035,-2.4785124620500976,-31.132885910161598,0.007275160738330459,-0.004330334223095275,-1.514828356117001e-16,85792.4127094262,,,
4.99,-1.4028235648233978,-2.4799230894009052,-31.10413687522783,0.007281091606958177,-0.004333654025209511,-1.5140959407505238e-16,,,,
5.0,-1.4036638713967273,-2.4813262968432532,-31.075473466758577,0.007287125194017409,-0.004337041034316969,-1.5133689387918978e-16,85741.65281057672,33.49818251258369,-99.33848317302008,1386.1358023905113
5.01,-1.4045028978441352,-2.4827239411607547,-31.04689515674655,0.007293351915880636,-0.004340554946693337,-1.5126477119500875e-16,,,,
5.0200000000000005,-1.4053411562316578,-2.484118135862509,-31.01840140552181,0.0072998293643793824,-0.004344233814973845,-1.511926796015881e-16,85691.0075339746,,,
5.03,-1.4061792077405384,-2.48551108400867,-30.989991672839928,0.007306591687467802,-0.0043481001943132674,-1.5112034097589577e-16,,,,
5.04,-1.4070177273836344,-2.486905311137164,-30.961665378508798,0.007313647366959673,-0.0043521596479384654,-1.5104809098970702e-16,85640.47645103799,,,
5.05,-1.4078572562250948,-2.488302741169002,-30.933422020050674,0.007320976909806468,-0.004356399276973606,-1.5097544588753626e-16,,,,
5.0600000000000005,-1.4086982881874217,-2.489705038047873,-30.905261116427905,0.007328539502463702,-0.004360792114289002,-1.5090207777803767e-16,85590.05912649767,,,
5.07,-1.4095411451893698,-2.4911132204822852,-30.87928635990547,0.007336290238007956,-0.004365308422377916,-1.508299973099279e-16,,,,
5.08,-1.4103861116520278,-2.492528070163564,-30.856307313388783,0.007344160110085771,-0.0043699026334442,-1.5075779239883e-16,85539.75514345811,,,
5.09,-1.4112332744806169,-2.493949662016319,-30.833378822035016,0.0073520865967793714,-0.0043745334708710825,-1.5068572076017225e-16,,,,
5.1000000000000005,-1.4120826077133026,-2.495377666040603,-30.810500668988308,0.007360008999573821,-0.004379160855637391,-1.5061434462115633e-16,85489.5641018452,33.49817001130953,-99.33850777990156,1410.256214286701
5.11,-1.4129339676264001,-2.4968113372728435,-30.787672766518536,0.007367872737173172,-0.00438374868731933,-1.5054317573449761e-16,,,,
5.12,-1.4137871186826665,-2.4982496458844636,-30.762489546183104,0.007375635988608798,-0.004388269337673179,-1.504718737637397e-16,85439.48562012798,,,
5.13,-1.4146417594617353,-2.4996913770711697,-30.734819550853054,0.007383271581269114,-0.004392704824714793,-1.5040067211130419e-16,,,,
5.14,-1.4154975979862794,-2.5011354083713715,-30.707229841199748,0.007390767739325033,-0.0043970473738435874,-1.503297310287503e-16,85389.51930479298,,,
5.15,-1.416354308576321,-2.502580541368236,-30.679720363348526,0.007398125216521238,-0.004401297468959245,-1.5025885450719616e-16,,,,
5.16,-1.4172116023062262,-2.504025763142578,-30.652290895768942,0.007405358067469445,-0.0044054644004646966,-1.5018797606414632e-16,85339.66474378567,,,
5.17,-1.4180692671825224,-2.505470372152207,-30.625580509561036,0.0074124874742669475,-0.0044095621808112025,-1.5011725147646788e-16,,,,
5.18,-1.4189271190246575,-2.5069138019821877,-30.59952580777135,0.007419544098984191,-0.004413611087891493,-1.5004688940086932e-16,85289.92152588403,,,
5.19,-1.4197850549530961,-2.5083558022753305,-30.573542648787086,0.007426562383081771,-0.004417633900215896,-1.4997680534816845e-16,,,,
5.2,-1.4206430498068052,-2.5097964002368016,-30.547630757431868,0.007433574785629595,-0.004421652057319762,-1.4990683707542895e-16,85240.28924302851,33.49815758852109,-99.33853222661295,1434.1654950140942
5.21,-1.4215011349311109,-2.511235827506913,-30.52178984099794,0.007440612647050054,-0.004425686255608929,-1.4983678885521422e-16,,,,
5.22,-1.4223593971063857,-2.5126745022405026,-30.49601959039894,0.0074477025538655294,-0.004429754097324089,-1.497668805444449e-16,85190.76749934172,,,
5.23,-1.423217969600973,-2.5141129891681393,-30.47031968475447,0.007454865145953517,-0.004433869220981632,-1.496970481900644e-16,,,,
5.24,-1.42407701133218,-2.5155519161981474,-30.44777794894409,0.007462113034972632,-0.004438039951190753,-1.4962733376351904e-16,85141.3558964377,,,
5.25,-1.4249366931144158,-2.5169919264163556,-30.425782205002065,0.007469451129296246,-0.004442269534160717,-1.495577418565379e-16,,,,
5.26,-1.4257971603135624,-2.5184335427444444,-30.403834427017458,0.007476877665599991,-0.004446556795045132,-1.494882917630684e-16,85092.05405339506,,,
5.2700000000000005,-1.4266585670887129,-2.519877300423026,-30.38193440026328,0.0074843849242680885,-0.0044508966116429665,-1.494189875816132e-16,,,,
5.28,-1.4275210321798437,-2.5213235830843983,-30.360081949467514,0.0074919600255016925,-0.004455280450157684,-1.493498300564941e-16,85042.86160829857,,,
5.29,-1.4283846378697054,-2.5227726322432913,-30.334356539512687,0.007499586774974672,-0.004459697590931813,-1.4928073282626148e-16,,,,
5.3,-1.4292494315396511,-2.5242245569217587,-30.30791587431447,0.00750724723452546,-0.004464136155501848,-1.4921175522194443e-16,84993.77819212821,33.49814524291263,-99.3385565157739,1457.8661838877717
5.3100000000000005,-1.4301154252683945,-2.5256793395307615,-30.281550692395797,0.0075149252854506635,-0.0044685854686132296,-1.491428914903945e-16,,,,
5.32,-1.4309826015962404,-2.527136854816141,-30.255260736623917,0.00752260418077927,-0.004473034447714126,-1.490741398680468e-16,84944.80341792473,,,
5.33,-1.4318509124091316,-2.5285968742211455,-30.2290457361178,0.0075302700637966315,-0.004477473947353501,-1.4900548819023619e-16,,,,
5.34,-1.4327202994551211,-2.530059147480885,-30.202905432897552,0.0075379135481897334,-0.004481897789602845,-1.489369697585848e-16,84895.93689025386,,,
5.3500000000000005,-1.4335906770256348,-2.53152333023322,-30.17683956036441,0.00754552725239208,-0.004486301103862508,-1.4886855466905377e-16,,,,
5.36,-1.4344619601601467,-2.532989100761339,-30.150847857475636,0.007553108730478096,-0.004490682292943345,-1.4880028695653064e-16,84847.17821856635,,,
5.37,-1.435334065252442,-2.5344561539574255,-30.124930061258723,0.007560659161023523,-0.004495042158176517,-1.487321420801429e-16,,,,
5.38,-1.4362069277487977,-2.535924264324455,-30.099085913479254,0.0075681823040939945,-0.004499383201357708,-1.4866411459339255e-16,84798.52701126324,,,
5.39,-1.4370804824103152,-2.5373932130052888,-30.076444529223775,0.007575684966378147,-0.004503709941879862,-1.4859620142482815e-16,,,,
5.4,-1.4379546878349072,-2.5388628733382377,-30.0552854585849,0.0075831755956526255,-0.0045080279739980345,-1.4852841067071655e-16,84749.98288775241,33.498132973244815,-99.33858064986941,1481.3607054266106
5.41,-1.4388295181789847,-2.5403331793803305,-30.03417195799803,0.007590663593173822,-0.0045123435149098815,-1.4846073968314846e-16,,,,
5.42,-1.4397049677122284,-2.541804140225907,-30.013103883778317,0.007598158444682495,-0.004516662820431024,-1.483931820256463e-16,84701.5454879945,,,
5.43,-1.4405810471971732,-2.5432758229146555,-29.992081094488146,0.007605668992075874,-0.004520991718950978,-1.4832574079482338e-16,,,,
5.44,-1.4414577794133243,-2.544748332791285,-29.968548705167958,0.00761320194504431,-0.004525334626309351,-1.4825841164623515e-16,84653.21446558484,,,
5.45,-1.4423351993513915,-2.5462218212322254,-29.94314168511875,0.007620763471386116,-0.004529695587253729,-1.4819120317048698e-16,,,,
5.46,-1.4432133519091113,-2.5476964658623302,-29.91780629310359,0.007628357435272295,-0.004534077126707191,-1.481241107614038e-16,84604.9894644048,,,
5.47,-1.4440922829040608,-2.5491724405017826,-29.892542249693783,0.007635985259698547,-0.0045384801684937295,-1.4805713406492785e-16,,,,
5.48,-1.4449720383636497,-2.5506499112121186,-29.867349264826114,0.007643646605679547,-0.004542904477040058,-1.479902401777042e-16,84556.87010863275,,,
5.49,-1.4458526599390407,-2.552129023261665,-29.84222705354022,0.007651339517422379,-0.004547348754211474,-1.479234876455277e-16,,,,
5.5,-1.4467341829252243,-2.553609891945411,-29.81717533277517,0.007659060488422867,-0.004551810684284833,-1.4785686568422928e-16,84508.85602389292,33.49812077826249,-99.33860463141899,1504.6514843857994
5.51,-1.4476166342326857,-2.5550925987449453,-29.79219382223435,0.007666804881113731,-0.004556287209930821,-1.4779034546654155e-16,,,,
5.5200000000000005,-1.448500029547242,-2.5565771805727837,-29.767282248975345,0.007674567627048072,-0.004560774993511913,-1.4772389291821688e-16,84460.94683364598,,,
5.53,-1.4493843744978763,-2.558063637584813,-29.742440347225102,0.00768234359812192,-0.004565270669767686,-1.4765759810131468e-16,,,,
5.54,-1.450269666536295,-2.5595519408132024,-29.7187277493267,0.0076901281376568174,-0.004569771173549049,-1.4759142450339864e-16,84413.14216663265,,,
5.55,-1.451155896009035,-2.5610420354725028,-29.69836448923216,0.007697917039211542,-0.004574273742153248,-1.4752536285567372e-16,,,,
5.5600000000000005,-1.4520430476445154,-2.5625338486774183,-29.67804461228234,0.007705707619022586,-0.004578776603240999,-1.4745941396251106e-16,84365.44166395009,,,
5.57,-1.4529310982961507,-2.5640272823862653,-29.657767759554822,0.007713497443218429,-0.004583278155130976,-1.4739358233072012e-16,,,,
5.58,-1.4538200232744345,-2.5655222403358087,-29.63419817775555,0.007721285655696917,-0.004587777825799276,-1.4732785377597801e-16,84317.844989468,,,
5.59,-1.4547097976485193,-2.5670186315787404,-29.609723583757972,0.007729072512913247,-0.0045922757714647235,-1.4726223948809703e-16,,,,
5.6000000000000005,-1.4556004034597054,-2.568516392872956,-29.585317006430316,0.007736859086557713,-0.00459677268838798,-1.4719673849319661e-16,84270.35179595438,33.49810865674782,-99.33862846286749,1527.7408714131202
5.61,-1.4564918225256307,-2.5700154609980346,-29.56097822196453,0.007744647254909471,-0.0046012698052720884,-1.471313596398497e-16,,,,
5.62,-1.4573840432596532,-2.571515802430376,-29.536706976239614,0.00775243943092063,-0.004605768709324218,-1.4706609096297854e-16,84222.9617222783,,,
5.63,-1.4582770605369435,-2.5730174032853315,-29.51482103700501,0.007760237863430108,-0.004610270883023957,-1.4700091724914956e-16,,,,
5.64,-1.459170872589504,-2.5745202628499833,-29.494904297352004,0.007768045393100323,-0.004614778200291149,-1.4693584477553985e-16,84175.67441465007,,,
5.65,-1.4600654808691669,-2.5760243904508706,-29.475029470661696,0.007775864589205463,-0.004619292351962602,-1.468708936843042e-16,,,,
5.66,-1.4609608917057881,-2.5775298156680493,-29.45519640234943,0.007783697759566681,-0.0046238148553561205,-1.4680606201435976e-16,84128.48953448732,,,
5.67,-1.4618571129674356,-2.5790365676021487,-29.43540497373316,0.007791546646163363,-0.004628346848130823,-1.4674134594285333e-16,,,,
5.68,-1.4627541568022895,-2.580544696001806,-29.4144443690055,0.007799412732242448,-0.004632889296368819,-1.4667673027197715e-16,84081.40676184674,,,
5.69,-1.463652034488741,-2.5820542433157083,-29.390572722653026,0.007807296903175427,-0.004637442770115774,-1.4661221757196726e-16,,,,
5.7,-1.4645507600332015,-2.583565264471332,-29.366766686247225,0.007815199415629947,-0.004642007428922363,-1.4654782133375073e-16,84034.42576550382,33.49809660751323,-99.33865214659963,1550.6311533721666
5.71,-1.4654503474198648,-2.5850778058614408,-29.343026143393814,0.007823119943076764,-0.00464658305324557,-1.4648352332268696e-16,,,,
5.72,-1.4663508092965225,-2.586591911378084,-29.3193508451318,0.00783105770370452,-0.004651169129714831,-1.4641931106297643e-16,83987.54619432174,,,
5.73,-1.4672521552256148,-2.588107611151628,-29.295740553196968,0.007839011694723844,-0.004655765001761984,-1.4635524197584265e-16,,,,
5.74,-1.4681543936867036,-2.589624929243293,-29.272195012371935,0.007846980345143962,-0.004660369646470213,-1.4629128356241072e-16,83940.76770323678,,,
5.75,-1.4690575292680939,-2.591143874922136,-29.2487139813407,0.00785496218353251,-0.0046649821062551755,-1.4622742883205446e-16,,,,
5.76,-1.4699615644961437,-2.592664450887435,-29.225297219841945,0.007862955730839371,-0.0046696014194122955,-1.4616368020883394e-16,83894.08994139933,,,
5.7700000000000005,-1.4708664984246382,-2.5941866450074356,-29.20194448359575,0.00787095948344808,-0.004674226610725543,-1.4610004392330842e-16,,,,
5.78,-1.4717723295502962,-2.5957104455990536,-29.178655541951834,0.00787897236895192,-0.004678856984263709,-1.4603651025652856e-16,83847.5125628972,,,
5.79,-1.4726790536762386,-2.5972358290085955,-29.158196131289948,0.007886993346966452,-0.004683491867084463,-1.4597308657040303e-16,,,,
5.8,-1.4735866667347655,-2.5987627719872686,-29.139054485373688,0.007895021832560746,-0.004688130879169875,-1.459097714420929e-16,83801.03522900454,33.49808462942923,-99.33867568488336,1573.3245148626984
5.8100000000000005,-1.4744951616910733,-2.6002912421516626,-29.119952488128362,0.0079030575887887,-0.004692773863647862,-1.4584654976768904e-16,,,,
5.82,-1.475404532273508,-2.601821214014336,-29.100890021914633,0.007911100771460235,-0.004697420913010679,-1.4578344084188308e-16,83754.65762014347,,,
5.83,-1.4763147717481078,-2.603352658154915,-29.08186697776307,0.007919151875008542,-0.004702072335281843,-1.4572043384884052e-16,,,,
5.84,-1.4772258753445537,-2.6048855575649963,-29.061543787201085,0.007927211659514053,-0.004706728608592747,-1.45657539986403e-16,83708.37942774396,,,
5.8500000000000005,-1.4781378384693695,-2.6064198979192703,-29.038631588826057,0.007935281074792909,-0.00471139033339134,-1.4559475353709864e-16,,,,
5.86,-1.4790506604410654,-2.6079556794602174,-29.01578136555653,0.007943361053117663,-0.004716058100756971,-1.45532070850855e-16,83662.20033625122,,,
5.87,-1.479964342249306,-2.60949290861509,-28.992993063032028,0.00795145257754174,-0.0047207325398475174,-1.4546948055538696e-16,,,,
5.88,-1.4808788860285855,-2.611031594479947,-28.970266457530975,0.007959556527408367,-0.0047254142191766706,-1.454069980109865e-16,83616.12001450772,,,
5.89,-1.4817942964774506,-2.612571757160847,-28.947601323851313,0.007967673520544569,-0.0047301035426826595,-1.453446370473249e-16,,,,
5.9,-1.4827105789266826,-2.6141134135582775,-28.928746354775015,0.007975804092870374,-0.004734800865039805,-1.4528236750166414e-16,83570.13812968755,33.49807272135207,-99.33869908001698,1595.8231414263892
5.91,-1.4836277391062063,-2.6156565818823694,-28.910092862038095,0.007983948538769041,-0.0047395063856889115,-1.4522020401626011e-16,,,,
5.92,-1.4845457814724354,-2.6172012752030906,-28.891477632045174,0.0079921070096996,-0.0047442202104305605,-1.4515813628270922e-16,83524.25436314553,,,
5.93,-1.4854647104406853,-2.618747508054379,-28.872900557076512,0.008000279565546624,-0.004748942378859091,-1.4509617735390844e-16,,,,
5.94,-1.4863845300207572,-2.6202952895186877,-28.85436152749404,0.008008466098627844,-0.004753672821111139,-1.4503431609941345e-16,83478.46841605664,,,
5.95,-1.4873052432969838,-2.6218446294008655,-28.83267391792299,0.008016666435131683,-0.004758411420844081,-1.449725580952849e-16,,,,
5.96,-1.4882268516791521,-2.6233955328004663,-28.808451990974763,0.008024880366202403,-0.004763158036047142,-1.4491090483624912e-16,83432.77998457955,,,
5.97,-1.4891493593613325,-2.6249480151832065,-28.784301559960195,0.008033107532705346,-0.004767912430811755,-1.4484935896545127e-16,,,,
5.98,-1.4900727694814146,-2.626502084356966,-28.76022240243612,0.008041347486346379,-0.004772674317632369,-1.447879156178761e-16,83387.18874136201,,,
5.99,-1.490997087172061,-2.628057753935564,-28.741521628858024,0.008049599714184959,-0.004777443371898642,-1.4472656827039756e-16,,,,
6.0,-1.4919223147767748,-2.6296150252236377,-28.72326549989849,0.008057863684112009,-0.004782219256161997,-1.4466532989152297e-16,83341.69435735208,33.498060882215555,-99.338722334142,1618.1290908533522
6.01,-1.4928484513043876,-2.631173886565868,-28.705046516344794,0.008066138942507363,-0.004787001681804049,-1.4460418956203067e-16,,,,
6.0200000000000005,-1.493775496270393,-2.6327343333383597,-28.68686457500365,0.008074425205544689,-0.004791790465373951,-1.4454315491788173e-16,83296.29655379125,,,
6.03,-1.4947034475658827,-2.6342963507317663,-28.668719571908515,0.008082722327616913,-0.004796585506174321,-1.4448220838228014e-16,,,,
6.04,-1.4956323032637724,-2.635859929885034,-28.648843981489613,0.008091030367556559,-0.004801386832487835,-1.4442136405451807e-16,83250.99508909421,,,
6.05,-1.4965620615222832,-2.6374250624651183,-28.627032131898122,0.008099349404214043,-0.004806194485064421,-1.4436062435923814e-16,,,,
6.0600000000000005,-1.497492721298835,-2.638991744895202,-28.605278369937643,0.008107679685359423,-0.004811008610753795,-1.4429997538737713e-16,83205.78972236365,,,
6.07,-1.4984242835588237,-2.640559980167307,-28.58358249916516,0.008116021429085567,-0.004815829342941074,-1.4423943606824152e-16,,,,
6.08,-1.4993567484133887,-2.6421297661263043,-28.561944308801717,0.008124374881096295,-0.0048206568362496325,-1.4417899218782774e-16,83160.68019210015,,,
6.09,-1.5002901171984657,-2.64370110788875,-28.540363588615012,0.008132740282530153,-0.004825491246469911,-1.4411865752186563e-16,,,,
6.1000000000000005,-1.5012243927665314,-2.6452740135699244,-28.522464542127423,0.008141117832098695,-0.004830332705756736,-1.4405841584414088e-16,83115.66623328456,33.498049110967415,-99.33874544937309,1640.244383669158
6.11,-1.5021595769997154,-2.6468484848263225,-28.504666743933143,0.008149507722574379,-0.0048351813434748085,-1.4399826585188176e-16,,,,
6.12,-1.5030956705382306,-2.648424520139254,-28.48690483405009,0.008157910133595297,-0.004840037276832518,-1.4393821301452238e-16,83070.74759793302,,,
6.13,-1.504032675331203,-2.6500021262376743,-28.46917870526162,0.008166325309536775,-0.004844900659848405,-1.4387825766295041e-16,,,,
6.140000000000001,-1.504970592250974,-2.651581300708618,-28.45148825931845,0.008174753439734976,-0.004849771612536307,-1.4381839953521457e-16,83025.9240535082,,,
6.15,-1.5059094226539176,-2.6531620476383244,-28.432144963583642,0.008183194719503895,-0.0048546502524252425,-1.4375864715148738e-16,,,,
6.16,-1.5068491675153726,-2.654744371317047,-28.410902256291173,0.008191649337298547,-0.0048595366922641195,-1.4369898559412754e-16,82981.1953699454,,,
6.17,-1.5077898294863588,-2.6563282807489568,-28.389715532921418,0.008200117394115247,-0.004864430991655609,-1.4363942417402606e-16,,,,
6.18,-1.508731411794681,-2.6579137862406603,-28.368584641287242,0.008208598910482718,-0.004869333162413756,-1.4357996049992245e-16,82936.56129364992,,,
6.19,-1.5096739175484672,-2.6595008975053602,-28.34750938846627,0.008217093817233302,-0.004874243159735042,-1.4352059763916734e-16,,,,
6.2,-1.510617349433419,-2.661089622060719,-28.326489566687908,0.00822560196125328,-0.004879160889469375,-1.4346132450838617e-16,82892.02157249393,33.4980374065854,-99.33876842776458,1662.1709809247936
6.21,-1.5115617109468993,-2.6626799676018744,-28.308797555204844,0.008234123125441252,-0.004884086218956061,-1.434021493836673e-16,,,,
6.22,-1.5125070048407907,-2.6642719396679193,-28.29144291454783,0.008242657130367778,-0.004889019036412673,-1.4334306565338991e-16,82847.57595281053,,,
6.23,-1.513453231783137,-2.6658655351396945,-28.27412293474525,0.008251203764549292,-0.0048939592116758164,-1.4328408576021114e-16,,,,
6.24,-1.5144003916956037,-2.6674607492833085,-28.256130367058056,0.008259762951801334,-0.004898906692369266,-1.432252006602786e-16,82803.22420170065,,,
6.25,-1.5153484841936002,-2.6690575798932117,-28.23534671422332,0.008268334636815247,-0.004903861438470424,-1.4316641129814018e-16,,,,
6.26,-1.5162975095483162,-2.670656025815866,-28.2146172994491,0.008276918776560642,-0.004908823419061361,-1.4310771654663582e-16,82758.96608784936,,,
6.2700000000000005,-1.5172474690207174,-2.6722560901521843,-28.193942062415058,0.008285515366912159,-0.004913792627775835,-1.4304911512735761e-16,,,,
6.28,-1.5181983638323018,-2.6738577749368577,-28.173320822307346,0.008294124425260958,-0.004918769075294039,-1.4299061692177235e-16,82714.8013596258,,,
6.29,-1.5191501953202868,-2.675461081567086,-28.152753395590473,0.008302745936024649,-0.0049237527508791444,-1.4293220599939093e-16,,,,
6.3,-1.5201029652781999,-2.677066014718762,-28.134327580104486,0.00831137991887526,-0.004928743668344939,-1.4287389026581828e-16,82670.72977076878,33.49802576806891,-99.33879127132818,1683.9107967522746
6.3100000000000005,-1.5210566759084179,-2.678672576836311,-28.117334177806907,0.008320026339403841,-0.004933741807910039,-1.4281567234515677e-16,,,,
6.32,-1.5220113274279703,-2.680280764008151,-28.100374472811932,0.008328685246777235,-0.004938747200432959,-1.4275754420900476e-16,82626.75108075507,,,
6.33,-1.5229669202608647,-2.681890574224,-28.08344835527193,0.00833735677147431,-0.004943759925244358,-1.4269950555168405e-16,,,,
6.34,-1.5239234548825968,-2.6835020064581654,-28.06655573466563,0.0083460410663519,-0.004948780074112993,-1.426415595918893e-16,82582.86506381349,,,
6.3500000000000005,-1.524880931990542,-2.685115059754182,-28.049696520699182,0.00835473833082472,-0.0049538077664084915,-1.4258371751855829e-16,,,,
6.36,-1.5258393512493997,-2.6867297319619388,-28.029550247723332,0.008363448786281924,-0.004958843132570637,-1.4252596573710533e-16,82539.07149882216,,,
6.37,-1.526798713539503,-2.6883460265823365,-28.009350982685557,0.008372172678214426,-0.004963886318001179,-1.424683051750865e-16,,,,
6.38,-1.5277590214822276,-2.6899639526804773,-27.989204021441257,0.008380910167083325,-0.004968937418860491,-1.4241073606514223e-16,82495.37015396515,,,
6.390000000000001,-1.5287202777218614,-2.691583519121453,-27.96910918032422,0.008389661343707491,-0.004973996491474125,-1.423532654691857e-16,,,,
6.4,-1.5296824844709067,-2.6932047310567304,-27.949066274162988,0.00839842624235536,-0.0049790635593893896,-1.4229588080415053e-16,82451.76078127153,33.49801419442863,-99.33881398205361,1705.4657128198305
6.41,-1.5306456448139176,-2.6948275981223766,-27.930116451307615,0.008407204831715252,-0.0049841386046742394,-1.4223858706351957e-16,,,,
6.42,-1.5316097624300966,-2.696452129471963,-27.913539781783637,0.008415997008876795,-0.004989221568280785,-1.4218139191990534e-16,82408.24314214301,,,
6.43,-1.5325748386906324,-2.698078323951984,-27.896995741211917,0.008424802703614802,-0.004994312409101803,-1.4212427711065262e-16,,,,
6.44,-1.5335408753820352,-2.6997061859857996,-27.88048416173456,0.008433621832056095,-0.004999411076734409,-1.4206725535247928e-16,82364.81700759783,,,
6.45,-1.5345078725960697,-2.7013357114511884,-27.86227792238474,0.008442454353221945,-0.0050045175461587,-1.420103206323668e-16,,,,
6.46,-1.535475830219779,-2.702966898564595,-27.842506623465155,0.008451300288695222,-0.005009631826919062,-1.4195348126357147e-16,82321.48215779992,,,
6.47,-1.5364447498117613,-2.70459975148411,-27.82278610445331,0.0084601596400569,-0.005014753917405526,-1.4189674389851358e-16,,,,
6.48,-1.5374146333976961,-2.706234275548171,-27.803116203903965,0.008469032383145258,-0.005019883801317852,-1.4184008860364398e-16,82278.23836260168,,,
6.49,-1.5383854827270822,-2.7078704750629994,-27.783496740885955,0.008477918479916701,-0.005025021454955828,-1.4178352522956638e-16,,,,
6.5,-1.5393572993320999,-2.709508352039638,-27.763927538607586,0.008486817881958018,-0.005030166850673237,-1.417270506404248e-16,82235.08537981857,33.4980026847069,-99.33883656186741,1726.8375516022588
6.51,-1.5403300856899425,-2.7111479116300328,-27.74704794530379,0.008495730502274252,-0.005035319936654365,-1.4167066736798365e-16,,,,
6.5200000000000005,-1.5413038441160962,-2.7127891576916223,-27.730843000126594,0.00850465631713155,-0.0050404806978787,-1.416143746022627e-16,82192.02297534693,,,
6.53,-1.5422785749621224,-2.7144320856742223,-27.714669607555958,0.00851359530179173,-0.005045649120089019,-1.4155817820057133e-16,,,,
6.54,-1.543254278433453,-2.7160766929805455,-27.69852768615831,0.008522547510796636,-0.005050825232744285,-1.4150206703294677e-16,82149.05093053193,,,
6.55,-1.5442309551469962,-2.7177229776944887,-27.68241715027363,0.008531513064039212,-0.005056009104141235,-1.4144604328097312e-16,,,,
6.5600000000000005,-1.5452086058506802,-2.7193709399357995,-27.66604131573028,0.008540492107591526,-0.0050612008177751125,-1.413901054517979e-16,82106.16903543768,,,
6.57,-1.546187229490376,-2.7210205758896375,-27.645153355446112,0.008549484852565742,-0.005066400497092821,-1.4133425983460325e-16,,,,
6.58,-1.5471668272647991,-2.7226718903286065,-27.624323505909473,0.00855849143123148,-0.005071608218243874,-1.412785018910638e-16,82063.37707054814,,,
6.59,-1.5481474015413856,-2.724324891128552,-27.60355188271051,0.008567511985841995,-0.0050768240653131114,-1.4122282871947825e-16,,,,
6.6000000000000005,-1.5491289554229344,-2.7259795896172037,-27.583868004305028,0.008576546559638265,-0.005082048066094146,-1.411672471697045e-16,82020.67479668446,33.497991237951446,-99.33885901268614,1748.0281119816382
6.61,-1.5501114932240934,-2.7276359948808784,-27.567993016407645,0.008585595116603126,-0.005087280202574919,-1.4111174698069072e-16,,,,
6.62,-1.551095017482353,-2.7292941121267775,-27.552148712505705,0.008594657584683741,-0.005092520435291161,-1.4105633644772433e-16,81978.06197460885,,,
6.63,-1.552079528520531,-2.730953937115986,-27.53633500230842,0.008603733937934838,-0.005097768749536214,-1.4100101699733895e-16,,,,
6.640000000000001,-1.553065027775283,-2.7326154724175065,-27.52055180130112,0.008612824179513931,-0.005103025147017601,-1.4094578207561317e-16,81935.53839398189,,,
6.65,-1.5540515162204454,-2.734278717293823,-27.50479902861305,0.008621928349011331,-0.005108289651258803,-1.408906375293013e-16,,,,
6.66,-1.5550389942436222,-2.7359436695803376,-27.487758952877886,0.00863104651904512,-0.005113562303563353,-1.4083557242193198e-16,81893.10384669685,,,
6.67,-1.5560274622515105,-2.7376103315626303,-27.468932472584864,0.008640178807860678,-0.005118843171597982,-1.4078059895682487e-16,,,,
6.68,-1.5570169215062837,-2.7392787045617397,-27.45015348562863,0.00864932529772943,-0.005124132304034952,-1.4072570483210625e-16,81850.75811855038,,,
6.69,-1.5580073744524967,-2.740948796577503,-27.431421837556428,0.00865848602851682,-0.005129429722301058,-1.4067090766173952e-16,,,,
6.7,-1.5589988232281053,-2.7426206134591373,-27.412737360825105,0.008667661017128622,-0.005134735436303564,-1.4061619416350642e-16,81808.50098616083,33.49797985323594,-99.33888133637447,1769.0391420967983
6.71,-1.5599912697764795,-2.7442941591277497,-27.39409989532773,0.008676850249536296,-0.005140049438240917,-1.405615612597643e-16,,,,
6.72,-1.5609847170692168,-2.745969441348266,-27.377339879774276,0.008686053677656283,-0.005145371700084148,-1.405070284884832e-16,81766.33221921156,,,
6.73,-1.5619791676462675,-2.747646464491678,-27.361875131442844,0.00869527120566395,-0.005150702166934386,-1.4045257707637117e-16,,,,
6.74,-1.562974622111989,-2.7493252252696476,-27.346440093424924,0.008704502812779916,-0.005156040824686498,-1.4039821187150042e-16,81724.25159937951,,,
6.75,-1.563971081881789,-2.7510057253528544,-27.3310345637695,0.008713748491010948,-0.005161387667940315,-1.4034392393187663e-16,,,,
6.76,-1.5649685468884242,-2.752687961270368,-27.313547605656115,0.008723008308720791,-0.0051667427355758,-1.4028972478650834e-16,81682.258923504,,,
6.7700000000000005,-1.5659670173630738,-2.754371933272812,-27.295155313099247,0.008732282331368376,-0.0051721060634880665,-1.4023560714143253e-16,,,,
6.78,-1.5669664950716773,-2.756057645827137,-27.27680902128676,0.008741570644030947,-0.005177477702585019,-1.4018156410640874e-16,81640.35397897271,,,
6.79,-1.5679669817766684,-2.757745102865802,-27.258508579636572,0.00875087329544995,-0.005182857680410664,-1.4012761431220806e-16,,,,
6.8,-1.5689684792982084,-2.759434307855934,-27.24025382855102,0.008760190305524919,-0.005188246008571155,-1.4007375196410607e-16,81598.53654557344,33.49796852965487,-99.33890353475567,1789.8723466728097
6.8100000000000005,-1.5699709899917667,-2.7611252687726933,-27.22204461121923,0.008769521682670794,-0.0051936426932734335,-1.40019972730204e-16,,,,
6.82,-1.5709745162247601,-2.7628179886455193,-27.206317995669764,0.00877886739287027,-0.00519904771602711,-1.399662773322109e-16,81556.80639780838,,,
6.83,-1.571979060264542,-2.764512470917334,-27.191192206141537,0.008788227426695992,-0.005204461072172096,-1.3991266625344027e-16,,,,
6.84,-1.572984623379385,-2.7662087166297376,-27.176095129556423,0.008797601811718958,-0.0052098827777732875,-1.3985915280969535e-16,81515.1633243027,,,
6.8500000000000005,-1.5739912058388308,-2.7679067209560992,-27.16102667329503,0.00880699057122164,-0.005215312845416626,-1.3980571252665204e-16,,,,
6.86,-1.5749988081399997,-2.7696064850266584,-27.143388806339573,0.0088163938126895,-0.005220751336692312,-1.3975235456530034e-16,81473.60712633676,,,
6.87,-1.5760074307832133,-2.771308009337372,-27.125416870746598,0.008825811655101058,-0.005226198321152644,-1.3969907528045889e-16,,,,
6.88,-1.5770170756100617,-2.7730112981925634,-27.107489489593778,0.008835244187891252,-0.005231653850209385,-1.3964587484392297e-16,81432.13759547248,,,
6.890000000000001,-1.5780277446880786,-2.7747163568019864,-27.08960652532418,0.00884469149226734,-0.005237117971039085,-1.3959275727218716e-16,,,,
6.9,-1.5790394403334773,-2.776423192291403,-27.071767826155778,0.00885415359505261,-0.0052425906997841994,-1.3953972020495175e-16,81390.7545140453,33.497957266309356,-99.3389256096406,1810.529406436684
6.91,-1.5800521644912484,-2.778131808584263,-27.053973244044784,0.008863630498907347,-0.0052480720393233565,-1.3948677491179545e-16,,,,
6.92,-1.5810659200673123,-2.7798422115740955,-27.03897412861738,0.008873122176835252,-0.005253561974243866,-1.3943391322985087e-16,81349.45766398878,,,
6.93,-1.5820807094019125,-2.781554405170558,-27.02417733276975,0.00888262860593303,-0.005259060490926834,-1.393811334664828e-16,,,,
6.94,-1.5830965337278977,-2.783268389808175,-27.009408370742307,0.008892149772654156,-0.005264567581912092,-1.3932844077183825e-16,81308.24683777496,,,
6.95,-1.584113393365357,-2.78498416125378,-26.994667172543235,0.008901685726926949,-0.005270083274944834,-1.3927582920728472e-16,,,,
6.96,-1.5851312898648307,-2.786701722890846,-26.979953665061014,0.008911236540594912,-0.005275607609838499,-1.3922328884490157e-16,81267.12184314508,,,
6.97,-1.5861502242815504,-2.788421074661926,-26.96526777675676,0.008920802328256905,-0.0052811406520364935,-1.391708265438113e-16,,,,
6.98,-1.587170197859143,-2.7901422174753936,-26.950609436372176,0.008930383201293073,-0.005286682465083928,-1.3911845205152739e-16,81226.08248533632,,,
6.99,-1.5881912122801647,-2.791865155276215,-26.935978572487404,0.008939979283292323,-0.005292233119737765,-1.390661580806738e-16,,,,
7.0,-1.589213267890202,-2.793589884575253,-26.921375118060713,0.008949590729039659,-0.005297792703572919,-1.3901394565228516e-16,81185.12857274168,33.49794606232295,-99.3389475627953,1831.0119576979139
7.01,-1.5902363670711521,-2.795316412018894,-26.90679899952815,0.00895921769942708,-0.00530336130832529,-1.3896180994116378e-16,,,,
7.0200000000000005,-1.591260510338631,-2.797044739295124,-26.889443325582047,0.008968860338411044,-0.005308939016684835,-1.389097567130476e-16,81144.25991444898,,,
7.03,-1.5922856990714593,-2.7987748694724184,-26.87208823206109,0.00897851878132779,-0.005314525906895859,-1.3885778392570697e-16,,,,
7.04,-1.593311936146596,-2.8005068122589116,-26.85477561798404,0.008988193084657,-0.005320122011690554,-1.3880588999417035e-16,81103.47630911454,,,
7.05,-1.5943392244692929,-2.8022405768323106,-26.837505339303846,0.008997883249370174,-0.005325727333484471,-1.3875407344988915e-16,,,,
7.0600000000000005,-1.595367566439902,-2.8039761691710314,-26.820277255627374,0.009007589223210351,-0.005331341843611462,-1.3870234119443958e-16,81062.77754423967,,,
7.07,-1.5963969645558527,-2.805713595576679,-26.803091224752738,0.009017310901634924,-0.005336965483132566,-1.3865067806063193e-16,,,,
7.08,-1.5974274220610771,-2.8074528638830354,-26.788667984329017,0.009027048159252215,-0.005342598181083324,-1.3859909794963172e-16,81022.16341088354,,,
7.09,-1.5984589418938873,-2.8091939789722224,-26.774351758948175,0.009036800812924406,-0.005348239833266854,-1.38547607521072e-16,,,,
7.1000000000000005,-1.5994915249149122,-2.8109369389241174,-26.76006212197782,0.009046568743806408,-0.0053538903731057625,-1.384961900662073e-16,80981.63370583698,33.49793491689271,-99.33896939583646,1851.3215257165582
7.11,-1.6005251715884254,-2.812681741327496,-26.745799009330813,0.009056351915869008,-0.005359549779218223,-1.3844484667737595e-16,,,,
7.12,-1.6015598821649735,-2.814428383426329,-26.72894528636738,0.009066150301549489,-0.005365218035580299,-1.383935835482507e-16,80941.18824447451,,,
7.13,-1.602595657334569,-2.816176866248661,-26.71197791914367,0.009075963941086685,-0.005370895166263307,-1.3834239760435696e-16,,,,
7.140000000000001,-1.6036324987786688,-2.817927193000254,-26.695051731414072,0.009085792853450375,-0.005376581182059267,-1.3829129534771476e-16,80900.82682870988,,,
7.15,-1.6046704085884715,-2.8196793689131026,-26.678166585869892,0.00909563704893273,-0.005382276089204841,-1.3824027369273878e-16,,,,
7.16,-1.605709388124409,-2.8214333947202497,-26.66132234615094,0.009105496535419366,-0.005387979892696967,-1.3818932207011753e-16,80860.54925155103,,,
7.17,-1.606749439355743,-2.82318927525451,-26.64451887455633,0.009115371323007548,-0.005393692599184918,-1.3813844568283977e-16,,,,
7.18,-1.607790564868504,-2.8249470150457228,-26.630145776501788,0.00912526138960391,-0.005399414195703991,-1.3808765221575238e-16,80820.3553057553,,,
7.19,-1.6088327664563873,-2.8267066148965174,-26.61613514356483,0.009135166769731033,-0.005405144701774404,-1.3803693583327486e-16,,,,
7.2,-1.6098760453143235,-2.8284680748313464,-26.602150315048906,0.00914508750454831,-0.0054108841407566,-1.3798629617025141e-16,80780.24479659888,33.49792382918363,-99.33899111044715,1871.4596639751228
7.21,-1.610920401695914,-2.830231391312026,-26.588191228501298,0.009155023698548856,-0.005416632571125117,-1.3793573052440023e-16,,,,
7.22,-1.6119658370479961,-2.8319965660666426,-26.574257816744304,0.009164975501022578,-0.005422390077551581,-1.3788524466896936e-16,80740.21754115404,,,
7.23,-1.6130123528023024,-2.8337636016316408,-26.5603500142384,0.009174943080391433,-0.005428156756086814,-1.3783482861942442e-16,,,,
7.24,-1.61405995014234,-2.835532498231441,-26.546467755972206,0.009184926608715463,-0.005433932705465137,-1.377844991522075e-16,80700.27335365734,,,
7.25,-1.61510862966563,-2.8373032542145187,-26.53261098040455,0.009194926274302271,-0.0054397180321897245,-1.3773424683556462e-16,,,,
7.26,-1.616158393926236,-2.8390758775128995,-26.518779619904922,0.009204942294509287,-0.005445512860484092,-1.3768406805791814e-16,80660.41205531242,,,
7.2700000000000005,-1.617209244162975,-2.840850368781752,-26.50497361141314,0.009214974852501216,-0.005451317295255741,-1.3763396912770902e-16,,,,
7.28,-1.61826118146994,-2.8426267310371074,-26.48842119422793,0.009225024095592947,-0.005457131419318029,-1.3758393806156808e-16,80620.63346245728,,,
7.29,-1.619314207637954,-2.8444049729399503,-26.47070191731752,0.009235090225940523,-0.005462955352985057,-1.375339923647899e-16,,,,
7.3,-1.6203683247794225,-2.8461850990341793,-26.453029160140233,0.009245173334393775,-0.005468789149543318,-1.3748411909227786e-16,80580.93738121829,33.49791279838668,-99.3390127082586,1891.4278786645302
7.3100000000000005,-1.6214235368797731,-2.847967123988317,-26.435402901007834,0.009255273369943744,-0.005474632780512514,-1.3743432008430015e-16,,,,
7.32,-1.6224798476878677,-2.849751058706191,-26.420183090539236,0.009265390208426455,-0.0054804861757706165,-1.373845947136256e-16,80541.32360490062,,,
7.33,-1.6235372615581092,-2.8515369122554124,-26.406569233255127,0.009275523691529262,-0.005486349245633483,-1.3733494425289074e-16,,,,
7.34,-1.6245957805874844,-2.853324687529415,-26.392980169430878,0.00928567361462314,-0.005492221874142123,-1.372853692442716e-16,80501.79193290413,,,
7.3500000000000005,-1.6256554049488217,-2.855114379409883,-26.379415838429992,0.009295839879921584,-0.005498104004624687,-1.3723586942404584e-16,,,,
7.36,-1.6267161368213305,-2.8569059921188775,-26.365876174233584,0.009306022369055596,-0.005503995569618176,-1.371864435263787e-16,80462.34218718154,,,
7.37,-1.6277779770449836,-2.8586995242167976,-26.352361116464117,0.009316221030978908,-0.005509896539474951,-1.3713708932160672e-16,,,,
7.38,-1.6288409261247654,-2.860494973232481,-26.337213109266774,0.009326435858379282,-0.005515806909826505,-1.3708781297263684e-16,80422.97418892191,,,
7.390000000000001,-1.6299049842183873,-2.862292339156518,-26.319886266579253,0.009336666881410485,-0.005521726699209869,-1.3703861147144727e-16,,,,
7.4,-1.6309701526635563,-2.8640916245391783,-26.302604542595983,0.009346914143826122,-0.005527655933498486,-1.3698948212599577e-16,80383.68775055156,33.49790182372718,-99.33903419083235,1911.2276178587438
7.41,-1.6320364338960593,-2.86589283597175,-26.28536790749851,0.009357177637224968,-0.0055335946077996806,-1.3694042752399708e-16,,,,
7.42,-1.633084292948116,-2.8675149950667786,-26.26934347202827,0.009368427223087384,-0.005540464331569766,-1.3694324477675399e-16,80344.48266999924,,,
7.43,-1.6340564372419812,-2.868271197135234,-26.256223226005584,0.009392550452158406,-0.005559535522818059,-1.3690260043061263e-16,,,,
7.44,-1.636228253393927,-2.8722695034759815,-26.24266505453764,0.009418266979983304,-0.005580061700928858,-1.3654190675977976e-16,80305.35874971614,,,
7.45,-1.6387035728771011,-2.877066149758411,-26.229022856646598,0.00941337999552756,-0.005571581643782425,-1.3626895395213763e-16,,,,
7.46,-1.6410487777451894,-2.881528746787892,-26.215450694787656,0.009378574280232452,-0.005534756662300619,-1.3620571303185106e-16,80266.31581160272,,,
7.47,-1.6432002800049916,-2.885535439870139,-26.201962302050106,0.009318266247645125,-0.005473743562656891,-1.3615689230515848e-16,,,,
7.48,-1.6451131337970293,-2.8890060160171416,-26.18856613742025,0.009238345524555295,-0.00539412440267216,-1.3610829813401118e-16,80227.35368659701,,,
7.49,-1.646761329730345,-2.8918998682181023,-26.17526587467834,0.009144938361898818,-0.005301715318583332,-1.3603920552973502e-16,,,,
7.5,-1.6481322113475714,-2.8942052933913915,-26.16206158311383,0.00904483819919759,-0.005202969577617799,-1.3592732686635725e-16,80188.47220307752,33.497890904374685,-99.33905555990981,1930.8603459777553
7.51,-1.6492296091812124,-2.895942625547878,-26.148949743513008,0.008943688446221527,-0.00510320351123723,-1.3589868017281195e-16,,,,
7.5200000000000005,-1.6500703292646095,-2.8971596138186677,-26.135923435369776,0.008847524137448732,-0.005008148003263789,-1.3586921020406037e-16,80149.67119085908,,,
7.53,-1.6506835255948888,-2.8979273350426284,-26.120686184966562,0.008761384670852428,-0.004922588430800883,-1.3584123099131252e-16,,,,
7.54,-1.651107728260771,-2.8983341177919435,-26.105325927772764,0.008689270791806024,-0.00485031004272957,-1.3580472714310086e-16,80110.95047308323,,,
7.55,-1.6513880793976512,-2.8984796188049695,-26.090030720083643,0.008634162889325754,-0.004794147847095663,-1.3578749913120497e-16,,,,
7.5600000000000005,-1.6515672426580246,-2.898455608056804,-26.074789094361876,0.008597729007984266,-0.004755681276017706,-1.357518139285831e-16,80072.30986138068,,,
7.57,-1.6516951043752592,-2.8983670976787823,-26.059588096871153,0.00858090200411858,-0.0047358023342431955,-1.3570099116556773e-16,,,,
7.58,-1.6518206170316216,-2.898314674516059,-26.044415521754242,0.008583431777522906,-0.0047342719198894025,-1.3565751217600676e-16,80033.74916587265,,,
7.59,-1.6519864327853555,-2.898383666822604,-26.030860846327336,0.008604034819977435,-0.00474987507160739,-1.3562490565508324e-16,,,,
7.6000000000000005,-1.6522302600144683,-2.89864766179737,-26.018151983414302,0.008640715804138922,-0.004780720369702358,-1.3557794015303875e-16,79995.26819484627,33.497880039362926,-99.33907681790843,1950.327427830437
7.61,-1.6525819556041568,-2.8991624537247116,-26.005433525285472,0.008690741113229539,-0.004824215989105697,-1.3553030624516248e-16,,,,
7.62,-1.6530634278834386,-2.8999665850706444,-25.992701337233214,0.00875098614400717,-0.004877399661016933,-1.3548183915123208e-16,79956.8667713937,,,
7.63,-1.6536884876820341,-2.901081402368043,-25.978286987030803,0.008818100409609717,-0.004937094239436309,-1.3543360334085695e-16,,,,
7.640000000000001,-1.6544623323462582,-2.9025098375363143,-25.961905606252266,0.00888842968277352,-0.0049998347924476265,-1.353863864407213e-16,79918.54472217105,,,
7.65,-1.655381255777845,-2.9042374866047815,-25.94553030185089,0.008958812293056369,-0.005062623468283483,-1.3534047233071946e-16,,,,
7.66,-1.656436999323105,-2.90624181114128,-25.929164128194437,0.00902666910325336,-0.005123012555038796,-1.3529216534239211e-16,79880.30185948104,,,
7.67,-1.6576135309436384,-2.9084835241383487,-25.91370603643589,0.009089079970364311,-0.005178233001423772,-1.3523222337367763e-16,,,,
7.68,-1.6588920504835467,-2.9109196098207777,-25.900953420901843,0.009144064214611568,-0.005226408145752583,-1.3518924438593647e-16,79842.13799207198,,,
7.69,-1.660249195879268,-2.913498443752947,-25.888207911704523,0.00918999917625968,-0.005265995286449975,-1.351521137913039e-16,,,,
7.7,-1.6616582592299616,-2.916162814815728,-25.87547658709354,0.009225887106503829,-0.005296049051152319,-1.3511066842351226e-16,79804.05294151678,33.49786922811062,-99.3390979656269,1969.6302687479924
7.71,-1.6630944518836357,-2.918860900180256,-25.862765753566084,0.009251402449176455,-0.005316260893227623,-1.3506894324293935e-16,,,,
7.72,-1.664537365887652,-2.9215508299061685,-25.850080429834527,0.009266664861352747,-0.005326747714989014,-1.3502260183573487e-16,79766.04654191612,,,
7.73,-1.6659614448579128,-2.9241812238001312,-25.837426701180817,0.00927230795292098,-0.005328108444253915,-1.3497360965210676e-16,,,,
7.74,-1.6673490376101074,-2.926717823579636,-25.82480851604483,0.009269307699149881,-0.005321259885172049,-1.3491890581479518e-16,79728.11863138468,,,
7.75,-1.6686830105899941,-2.929128260369797,-25.812229509258508,0.00925906920763133,-0.005307539072418096,-1.3486377613039545e-16,,,,
7.76,-1.6699512135865917,-2.9313909665824944,-25.799691958773654,0.009243237988372928,-0.005288505934782644,-1.3480345604268544e-16,79690.26904598465,,,
7.7700000000000005,-1.6711463559218076,-2.9334946215830544,-25.787196869987906,0.009223581538226392,-0.005265839524147808,-1.347948945294328e-16,,,,
7.78,-1.6722651763745024,-2.935436319900697,-25.773201353675557,0.00920191316586861,-0.005241257993892119,-1.34840141388015e-16,79652.49762018742,,,
7.79,-1.6733082987650016,-2.9372205738327297,-25.758472728392125,0.009179752701542419,-0.00521619991183115,-1.3480187230978337e-16,,,,
7.8,-1.6742799531101018,-2.938859858364965,-25.74379586153956,0.00915888471273743,-0.005192358119127822,-1.347671360411095e-16,79614.80418636127,33.49785846988395,-99.33911900451193,1988.7702370974123
7.8100000000000005,-1.675187842173985,-2.9403730151206613,-25.72916809366375,0.009140708495370221,-0.005171057490584113,-1.3471098544807018e-16,,,,
7.82,-1.6760412254625416,-2.9417813399035015,-25.714586514162942,0.009126307420032712,-0.005153333920823067,-1.3465781351579408e-16,79577.1885632114,,,
7.83,-1.676851962667107,-2.9431112563565316,-25.700047608186306,0.009116618057968822,-0.005140069368616643,-1.3461421699706633e-16,,,,
7.84,-1.6776333849565093,-2.9443914559643285,-25.68616537123864,0.00911223450034348,-0.005131829540354231,-1.345771745010168e-16,79539.65057106144,,,
7.8500000000000005,-1.6783977890222106,-2.945647829389633,-25.673983492309944,0.009113417891273868,-0.0051288596155514895,-1.3453484498388767e-16,,,,
7.86,-1.6791586517047805,-2.9469081572515683,-25.661821851515903,0.0091201778152274,-0.005131169317549201,-1.3449281841838287e-16,79502.19003470214,,,
7.87,-1.6799281717039192,-2.9481969484294597,-25.649677401917888,0.00913222380142031,-0.005138484316577077,-1.3445821251480835e-16,,,,
7.88,-1.6807157442084606,-2.9495325894378763,-25.637547910330895,0.009149110767716722,-0.005150385067849824,-1.34414503952847e-16,79464.80678974037,,,
7.890000000000001,-1.6815311601621197,-2.950933770064904,-25.625431151246254,0.009170134063554897,-0.005166201766405084,-1.343688862927911e-16,,,,
7.9,-1.6823811056081144,-2.952412598279711,-25.613325723240354,0.009194505268876756,-0.005185187650004808,-1.3432326595427484e-16,79427.50067676525,33.497847763866545,-99.33913993645481,2007.7486154321034
7.91,-1.6832706848035475,-2.9539775618874495,-25.6012307023034,0.009221258383228025,-0.005206426700368102,-1.3427535611563155e-16,,,,
7.92,-1.6842021756213024,-2.9556314209437877,-25.58914586213224,0.009249470042458382,-0.005229043255832482,-1.3423505985132076e-16,79390.27153396179,,,
7.930000000000001,-1.6851758615842785,-2.9573727609622296,-25.575512915377054,0.009278185350741834,-0.005252132246202656,-1.342098923502496e-16,,,,
7.94,-1.686190159087206,-2.959196618587579,-25.561221530785254,0.009306583733831529,-0.005274914567973797,-1.3418148360482625e-16,79353.11919946554,,,
7.95,-1.6872416381305695,-2.9610942662207536,-25.54695406031524,0.009333847737467864,-0.005296612111697295,-1.3413138383581206e-16,,,,
7.96,-1.6883254629280309,-2.963054387835732,-25.532711939021496,0.009359308403224064,-0.005316590823657043,-1.3407169308355516e-16,79316.04350147193,,,
7.97,-1.6894366918872312,-2.9650657865762238,-25.518496532649234,0.009382498661761747,-0.005334415387973161,-1.3402743729037224e-16,,,,
7.98,-1.6905681866332145,-2.967112911154018,-25.50430974067027,0.009402988483535253,-0.0053496728991391474,-1.3398602477902168e-16,79279.04426803457,,,
7.99,-1.6917135925782645,-2.9691822762980853,-25.490658702932347,0.009420577914553984,-0.0053621739636282315,-1.3394277122970483e-16,,,,
8.0,-1.6928657878462945,-2.9712590771976153,-25.478729284926903,0.009435188955946432,-0.00537184421515633,-1.3389741593791947e-16,79242.12132490304,33.49783710941876,-99.3391607626263,2026.5666848558249
8.01,-1.694018135666008,-2.9733298540143225,-25.466822030221202,0.009446910890758772,-0.005378767766055957,-1.3385087237845905e-16,,,,
8.02,-1.6951653348965774,-2.9753840919351093,-25.45493815876994,0.009455929547167756,-0.0053831207364586,-1.3380661634334166e-16,79205.27450819948,,,
8.03,-1.6963018696792669,-2.9774111182135337,-25.44307888698211,0.0094625667197052,-0.005385208005859426,-1.3376275683113768e-16,,,,
8.040000000000001,-1.6974235877139978,-2.979403223295366,-25.429287838015778,0.009467221999214535,-0.0053854083106418425,-1.337191264844368e-16,79168.50366272032,,,
8.05,-1.6985274341153067,-2.9813550760987093,-25.415316282406305,0.00947035359033629,-0.005384156021015615,-1.3367567149224641e-16,,,,
8.06,-1.699611489620795,-2.983263744014454,-25.40138211121856,0.009472451822409063,-0.005381916018663957,-1.3363229089463364e-16,79131.80862469305,,,
8.07,-1.7006749523256475,-2.985128608428412,-25.387485217303517,0.009474015475269073,-0.005379161222069789,-1.3358902090002097e-16,,,,
8.08,-1.7017180858133898,-2.9869512003930967,-25.37362522692283,0.009475525358694914,-0.0053763476170298604,-1.3354512739011334e-16,79095.18922340372,,,
8.09,-1.702742117474803,-2.9887349650006136,-25.3598015331918,0.009477430522026464,-0.00537390100818948,-1.3350087625203648e-16,,,,
8.1,-1.7037491175478248,-2.9904849549705568,-25.34682366492478,0.00948011958133505,-0.005372189775572184,-1.334578674445616e-16,79058.64528797571,33.497826505816796,-99.3391814845309,2045.225716687879
8.11,-1.7047418646668326,-2.992207560089353,-25.3352020589929,0.00948392424481941,-0.005371528314126663,-1.334169667430618e-16,,,,
8.120000000000001,-1.7057233503271763,-2.993909382613346,-25.32360309900033,0.009489071999328793,-0.005372133269626433,-1.3337503858476758e-16,79022.17665293168,,,
8.13,-1.706697186217147,-2.9955981981329147,-25.312025691065386,0.009495740572088742,-0.005374173342601447,-1.3333165192875455e-16,,,,
8.14,-1.7076670090940786,-2.9972816434580034,-25.300468813413936,0.009504013968483813,-0.005377727858107535,-1.3328846672665325e-16,78985.7831630683,,,
8.15,-1.7086358662657108,-2.9989659792015635,-25.288931635375747,0.009513898456059232,-0.005382803030344563,-1.332448881073501e-16,,,,
8.16,-1.7096074699274972,-3.000658703198583,-25.277413179323613,0.009525332921013714,-0.005389340477524984,-1.3320251463794727e-16,78949.46466757797,,,
8.17,-1.7105845807078277,-3.00236522280204,-25.2659127421555,0.009538194559321011,-0.005397224513840444,-1.3315978766250088e-16,,,,
8.18,-1.7115699252780914,-3.0040907498077556,-25.25442965549859,0.009552293696110024,-0.005406274708059907,-1.331184720650861e-16,78913.22101327572,,,
8.19,-1.7125653225474902,-3.0058385936084195,-25.241637038951318,0.009567426332313996,-0.005416297971314147,-1.3307316246563203e-16,,,,
8.2,-1.7135723035245585,-3.0076113711906522,-25.228104646252973,0.009583335801324094,-0.005427051186701836,-1.3303069609315748e-16,78877.05204737025,33.497815952326114,-99.33920210372752,2063.72696417493
8.21,-1.7145917395917896,-3.009410327186755,-25.214599391907626,0.009599755504124131,-0.005438281275570921,-1.3298979480862671e-16,,,,
