time_s,accelerometer_x,accelerometer_y,accelerometer_z,gyroscope_x,gyroscope_y,gyroscope_z,barometer_v1,gnss_x,gnss_y,gnss_z
0.0,-0.0012749302068433392,-0.0013061483376835927,-9.783656685376366,0.001170118808586135,0.0010723738681990723,-2.230674814045955e-06,96453.99907987667,33.498629414180705,-99.3376154777908,415.1889532622805
0.01,0.0028446520801593597,0.0007890053021112029,16.57241200766379,0.0005949050123891407,0.0002673050685054923,0.000972817400694124,,,,
0.02,-0.005262275270260643,-0.0011159818825809261,30.07111209734397,-0.0012499539962811225,-0.0014418261659147032,-0.00029624853862024697,96453.2795750452,,,
0.03,0.0016801116679024046,0.0028195819335045036,43.55242700607117,-7.497088963215695e-05,0.00033496071011751886,-0.0003595411825383161,,,,
0.04,-5.1433280627797185e-05,0.0009819729512405056,57.047944139093275,8.723586494086715e-05,0.0013373704723708148,-0.00017602798026583513,96453.31138754971,,,
0.05,-0.0006049452099131993,-0.0010506031774624987,68.56890721719488,0.000701971313070845,-0.0018038730282009471,0.0006194308629850069,,,,
0.06,0.005009343614220741,0.0006063336844990502,80.08622247088941,7.236023986312999e-05,-0.00148436655019898,-0.00023101969878835686,96453.99454193418,,,
0.07,-0.0009310610981908886,-0.00042584115876570516,83.50563677488175,-0.002190847481176438,9.713577239576654e-05,0.0007189604570787122,,,,
0.08,-0.006838130863225722,0.0012089544177830871,86.85728616267906,-0.0008286616327988809,0.00040707133660444886,0.00025493826644402994,96451.84224243778,,,
0.09,0.002687914400832704,0.004597012889020487,86.2812633288554,0.0006419624965747772,-0.0008303447510196957,0.0008403094823469973,,,,
0.1,-0.0019608977282913878,-0.0020863640216676016,85.67948944825064,0.0006888563009398094,0.00010823670010806522,0.0005100580029759671,96451.62159867871,33.4986446753068,-99.33755384194882,418.1064450766278
0.11,-0.00013275159599985254,-0.0021745284066724325,85.1816924935393,-0.0015127518903924149,-3.0173529256727746e-05,0.00021186147086068566,,,,
0.12,-0.0033305021476012823,-0.002001822766502896,84.67726559428957,-0.002012650219913343,0.0009003814204200985,-0.0011394195528567543,96450.00511348326,,,
0.13,0.0011819508499773495,-0.0005857968987098126,84.40721374483378,-0.0005432738275161059,-0.0014330800957716946,-0.0011398252439438518,,,,
0.14,-0.006612123958447163,0.0024833525894945225,84.12682528433437,0.00029136043883541793,-0.0003704803151283937,6.21334333388923e-05,96446.25078300365,,,
0.15,0.004269831993266746,-0.0003652347028045408,84.12281753228082,0.0009645241748206225,-0.0001297358493541776,-0.0011088440874217934,,,,
0.16,0.00044742709320861956,-0.00088105928703906,84.13075698647552,0.0011521373798309528,-0.00019652186854956735,-0.00028836517806644994,96445.04900844976,,,
0.17,0.002285928533223703,0.0033044341270782054,84.25548804223429,-0.0003750854232565134,-0.0009528059654930046,0.0005470214347825503,,,,
0.18,0.0017970583310095549,-0.0024209674798080327,84.39022384836571,-0.00045124894122309194,-0.0003392759248637917,0.0006443849764712502,96441.27872760728,,,
0.19,0.001687551701307799,0.0004516066701044468,84.37353230119419,-0.0011942611186031554,0.000589212445701273,8.420214050522966e-05,,,,
0.2,-0.0003521237533985343,-6.284931467516661e-05,84.35085846052384,0.0019225247185040628,-0.0007875624587889893,-0.0020570197115294155,96436.58074814473,33.4986140124066,-99.33759387631179,417.361478616762
0.21,0.00041167436780121657,0.0021251940774487566,84.37966655582215,0.0018018034754769463,0.000264301790987158,-0.0021731172363391145,,,,
0.22,0.004623698174800215,0.007105643547175479,84.41245348122628,-0.00021385395106223896,-0.0011097792638550116,3.3956847732975985e-05,96433.24040268021,,,
0.23,0.0003635246965163647,0.0037196508870202516,84.45627169131873,0.0006847103549804505,0.0008070548960814434,0.0009535143528898602,,,,
0.24,-0.0009667020645740252,-0.0004209173905737314,84.49986133732654,-0.0012748310050774568,-0.0010098929923007365,0.0012636276296696897,96429.3063568399,,,
0.25,-0.0016185784855118582,-0.002143921582808411,84.53931627451794,-0.000726931618878023,-0.0007483329133371724,-0.0004969674695931453,,,,
0.26,0.004496357876747132,-0.006167098926270678,84.58059239844933,-0.0009723626210274647,0.0006683212317245753,0.001608363737289498,96423.92157960964,,,
0.27,-0.0033298139862656547,0.0016299266162313642,84.73205509597089,0.0016491969893147266,0.0009093560085273371,-0.0008078057820059282,,,,
0.28,0.0013987041837968703,0.0017085111530442867,84.87771737911473,-0.0013485758619562792,-0.002431193157802738,0.0009403197120520651,96418.21292522171,,,
0.29,0.0030457518521420338,0.00047999868142363636,85.02594373552854,0.0011872024375944883,-0.0022738067666084032,-0.0008570048793646449,,,,
0.3,7.180857922890315e-05,-0.00521565359923731,85.17924535475358,0.0006547743835878278,0.0002734274682258218,0.0008203743652951171,96413.27428953712,33.49862164581033,-99.33769633853498,424.3713135228116
0.31,0.0008699817146323932,-0.0020958578719688387,85.31821347381039,-0.0003352814396413136,-0.00037254808612554165,0.0017269218476168855,,,,
0.32,-0.001184444751939896,-0.0025114938194099974,85.46552495126905,0.00014971609727918865,0.002013067553399616,-0.0018332335439499216,96407.48675696616,,,
0.33,0.25457016739573896,0.15333739448092973,85.61239445493528,0.0014664288785781708,-0.001848081400977814,0.0015872535948953672,,,,
0.34,0.2595597428058116,0.15967298441023808,85.75249418451604,0.0018145500446237542,-0.005208580961691595,-0.0004251860274788017,96399.64285402889,,,
0.35000000000000003,0.2666799812527213,0.15998999785409057,85.86087403589805,0.0005536081191127812,-0.01040546618151277,-0.0005928893048782574,,,,
0.36,0.271635276639925,0.15702465684363162,85.96650945979418,0.0016062938676390938,-0.014202039506241344,-0.0005759538938292222,96391.97157762082,,,
0.37,0.2820412649930311,0.1670663788870731,86.0920943282965,0.0033542438836301073,-0.01759744787712353,-0.0012898505660697143,,,,
0.38,0.2850630380643233,0.16615503895365935,86.21215136022003,0.006130229506040787,-0.024621978571472008,0.0018978158243854381,96385.90720394082,,,
0.39,0.28285192453968383,0.16619301678466694,86.36167151253818,0.00494671733703519,-0.02742105724728055,-0.0010121245379335825,,,,
0.4,0.2836089075468081,0.175106842015908,86.51663143587957,0.006852907553782124,-0.03396274666877841,-0.0021774497106626365,96379.41854841709,33.498613810090035,-99.33758333123114,424.664735303472
0.41000000000000003,0.2765955207578104,0.16897635956406504,86.84527383971985,0.006151013019345265,-0.03692035650898382,0.0007708137800186769,,,,
0.42,0.27949959023849236,0.17222011621110955,87.19080694530014,0.007275696263021301,-0.043521622135990735,-4.868868862412907e-05,96369.88277849906,,,
0.43,0.26826846335166876,0.1727069261486091,87.32752875720988,0.008786166813218196,-0.04742397686373283,0.0007346400077816937,,,,
0.44,0.2742936673107585,0.17083591362103417,87.44362712272492,0.008729229501833965,-0.052807760604435025,-0.00025411608897153216,96359.69734087349,,,
0.45,0.2600001660221731,0.16807182242731672,87.61429824802156,0.01095837805616675,-0.05661142749796356,-0.0015179312172599743,,,,
0.46,0.24355171897819347,0.17139911160145824,87.77991113026306,0.013034465982812792,-0.060940654768907226,7.523702634282881e-05,96349.51505216626,,,
0.47000000000000003,0.24180976448021577,0.16623464045567163,87.89264106420234,0.013582407313019374,-0.06631885716041545,0.0003564536861554159,,,,
0.48,0.22363615666849307,0.16018901468584135,87.99621164894178,0.013729064737385263,-0.07094701748657635,-0.0006279709398842706,96341.63202117188,,,
0.49,0.2053448017509018,0.15600296487152832,87.9380677206398,0.01680284880476234,-0.07706291430645383,0.0005048205284704754,,,,
0.5,0.18579769801492474,0.15269861076542346,87.86419080603783,0.015654742397441766,-0.08043863050152908,0.0010271677433432605,96331.32544169044,33.498597920361064,-99.33761707143562,426.4786348801257
0.51,0.17509276268668345,0.1473775037917392,88.06783514958137,0.015368573970714056,-0.08583258850477933,0.0006103759475533505,,,,
0.52,0.14987689520743455,0.1318860457792335,88.30525957507565,0.017915391449858955,-0.09148469051243253,0.0007117798148085405,96319.65286219784,,,
0.53,0.13335718092474894,0.12696900073427775,88.5104196150254,0.01866559775988834,-0.09499135650390941,0.000300019348079756,,,,
0.54,0.09565947262333618,0.11480393129474843,88.71657375693934,0.019382838983167183,-0.09943157349686763,-0.0015192760148215981,96309.7811385007,,,
0.55,0.0693356181008764,0.10722560853044892,88.95984662845288,0.020023224596830036,-0.10225008927107278,0.000713473732475963,,,,
0.56,0.04254856853590359,0.09786701716537609,89.19607788544145,0.021411970435158127,-0.10828824597824609,0.0004267231220145192,96298.24535100648,,,
0.5700000000000001,0.008166367156928119,0.0873015655140848,89.40867637355504,0.020964118957404746,-0.10921025816818923,0.0015887902768782463,,,,
0.58,-0.02510451031325201,0.07226353350995592,89.60426169066685,0.022356891479022936,-0.11543673504445175,-0.0004654263133300586,96285.798774908,,,
0.59,-0.06368878467718783,0.05534172575903967,89.77209492987008,0.024801692774932778,-0.11814574937221456,-0.0010625760388326528,,,,
0.6,-0.1047249441704512,0.04326890305752244,89.93954059864254,0.02220558520922651,-0.12052352911965272,0.0013158415766609543,96272.35876499653,33.49864779226991,-99.33764624487901,430.49793670680515
0.61,-0.14759427032919814,0.024827967216479584,90.07860734496934,0.02422759141864094,-0.12374641059015494,0.00028122841872698224,,,,
0.62,-0.18990295342062888,0.006688290267045413,90.22306431668369,0.024618383064553516,-0.1261963313221228,-0.0010018973040713248,96260.7410465791,,,
0.63,-0.2351794269681129,-0.009803456177961528,90.40252663147086,0.023482812082655846,-0.13010990310195109,-0.0009292799672196471,,,,
0.64,-0.27747784584075286,-0.024491430990004896,90.58945691810754,0.02700431272641504,-0.13200464186549987,0.0009862038280905039,96245.94373564597,,,
0.65,-0.33029794056073647,-0.04998059589023337,90.84547733347173,0.02522004541953669,-0.1300652978041771,-0.000925532048712446,,,,
0.66,-0.38274098237573206,-0.0711765995201889,91.10936876890895,0.02508497879913544,-0.12889532453649233,-0.0003154308681017815,96232.3158108472,,,
0.67,-0.43385486486125185,-0.08931441472334425,91.39667282025357,0.024400686979754505,-0.1300068663347502,-0.0005420773665672172,,,,
0.68,-0.4900575747608831,-0.11009136028764781,91.68902516724238,0.025692807838098256,-0.1316153731862595,-0.0001408855163216986,96217.36443134033,,,
0.6900000000000001,-0.5451505765490807,-0.13529648125733104,92.02204060460978,0.026332754958248727,-0.1317632108861619,0.001065015600432054,,,,
0.7000000000000001,-0.5965412382985482,-0.15659487658181562,92.35481773907976,0.022733469057702158,-0.1290282326442035,-2.5235226431231788e-05,96203.46501043341,33.498653065017855,-99.33761039385828,430.1774141958421
0.71,-0.6517201312890569,-0.1879094708909974,92.72904049994852,0.023751942790291906,-0.12728592038040012,0.00040551507056980066,,,,
0.72,-0.7146050019825984,-0.20363521850083793,93.09885579440444,0.023608827927564198,-0.12570423441763084,6.035106239827179e-05,96187.64667911503,,,
0.73,-0.7676147884113175,-0.2271612160193205,93.49249905789817,0.02383389724098386,-0.12323323367739386,0.0019027462883318203,,,,
0.74,-0.820930111548047,-0.2528755161008359,93.89474986116224,0.022600045857581574,-0.12059024480320797,0.00026373280959244395,96172.4268256778,,,
0.75,-0.8781542260970776,-0.2682861519599798,94.30333042571324,0.021573429769622905,-0.11600293859784758,-0.0007888807159548207,,,,
0.76,-0.9324818776224881,-0.29717113068626333,94.72494985612173,0.019981438929481343,-0.11272402605156867,-0.0010869573258027343,96156.06628910938,,,
0.77,-0.9885969349563324,-0.31782706427291996,95.13735729985588,0.0203691463233986,-0.10917241042339802,0.0017000165305022354,,,,
0.78,-1.0431484767740733,-0.3381759536556728,95.55403240703114,0.01867916044610419,-0.1033760251294878,0.0005435156028522318,96139.1496006742,,,
0.79,-1.0914729971211705,-0.3602681750704926,95.95076083718291,0.017955431760503175,-0.09837265956756039,0.0004748920330916628,,,,
0.8,-1.1344590916384925,-0.37785768301745365,96.35020696220549,0.01676985444753451,-0.09115193161185677,0.0007063452583268804,96121.60409562085,33.498621364980416,-99.33770666591568,447.9842049838008
0.81,-1.1818913389699577,-0.39921412977171844,96.69497885008717,0.01417661485746121,-0.08595502205346033,-0.0020492667046523097,,,,
0.8200000000000001,-1.2269495008066789,-0.4111112538698645,97.03924612105614,0.013447240313237626,-0.07895727872373949,0.00038308579125206487,96106.15422621001,,,
0.8300000000000001,-1.2737902070044285,-0.4316276490682462,97.33290821060152,0.011199124333966817,-0.07123216757222674,-0.0005001775952730252,,,,
0.84,-1.3105607696274142,-0.4485018091126698,97.6148937368227,0.012757190563377173,-0.06277658616804715,-0.00027812740985044577,96086.36950895717,,,
0.85,-1.340555839637513,-0.461236850533105,97.86854812249065,0.0077937999357997,-0.05668499401294229,0.00012626234532728804,,,,
0.86,-1.3615477453450004,-0.46990517668037873,98.11024816710683,0.0069112906722883435,-0.048531953067693076,-2.056452968994092e-05,96068.38206279848,,,
0.87,-1.390465154205451,-0.4752324868883344,98.33169153321685,0.003966596644457617,-0.03933483754271412,0.00014672305450829826,,,,
0.88,-1.4042845538112683,-0.4806494341812965,98.54786391862291,0.0031296712301623476,-0.03169287262633212,-0.0005310746091506937,96048.41087136959,,,
0.89,-1.4274257921276128,-0.47820966817802435,98.77062734891163,0.003638345995528618,-0.02508944075829636,-0.0010376555423422253,,,,
0.9,-1.4335954585007031,-0.4930250322944814,98.9927027413273,-0.00029958632021983856,-0.016594734238158795,-0.0007261526013746262,96029.62551645732,33.49857911329368,-99.33763277269634,453.63345738404706
0.91,-1.438944864804318,-0.4811251865496436,99.22299746443146,-0.001196467664282397,-0.008286334803363002,-0.0006299696753213681,,,,
0.92,-1.429642987022072,-0.48046035296581663,99.44801848068407,-0.00036280101469892854,0.0019959536787264374,-0.0006042330909898228,96009.88808123865,,,
0.93,-1.4224753663301082,-0.46810949532600155,99.66426389354928,-0.005995026933690789,0.010856942256107206,-0.00041003130528891827,,,,
0.9400000000000001,-1.408385402891248,-0.45609697485116807,99.87697818564261,-0.005155330141421577,0.01760813001837323,-0.0007924803600633498,95986.72326582043,,,
0.9500000000000001,-1.3914526717926685,-0.4439725208841116,100.07432759854487,-0.007688453602003549,0.025130788581891897,0.0006796902509438338,,,,
0.96,-1.366650737596655,-0.4272604685483874,100.25070004886676,-0.009185309621963284,0.031664434516528235,2.9992340761567506e-05,95967.77574008083,,,
0.97,-1.3289704107777145,-0.4060169858964879,100.39518958174091,-0.010433071197775748,0.039412006105197156,0.000844793779135148,,,,
0.98,-1.2921294051327221,-0.38631252220539697,100.5334865032642,-0.011308636999953816,0.04623385553788975,0.00019220355322449473,95946.10661758864,,,
0.99,-1.2552065779049955,-0.3625622522570303,100.61631092024012,-0.014504687114781641,0.04991353979794875,0.00025611449346702543,,,,
1.0,-1.2008795464417277,-0.33775239699096715,100.6942170060553,-0.012682156866072882,0.05774850147945646,-8.574197580523782e-05,95922.22763687844,33.49859849971142,-99.33757281283349,461.9718088136311
1.01,-1.1463657945091241,-0.3021762555883934,100.74015277194277,-0.015706163767027742,0.05984166909317144,-0.00025240569642271304,,,,
1.02,-1.0956444230846023,-0.2742697755155912,100.78477368800871,-0.015578189418443947,0.06318207878578339,0.000523171282391539,95900.24420260056,,,
1.03,-1.0322127664609488,-0.24006926548595717,100.8312754084281,-0.015548913048341691,0.06750988710441085,-3.5100357951474206e-05,,,,
1.04,-0.9733843401037838,-0.20786517092421322,100.87765162777005,-0.016606879011757378,0.06774037670698009,0.0005543269054870042,95876.82186246297,,,
1.05,-0.9053877561258203,-0.17695501587888351,100.9424623114296,-0.01767807155902016,0.06800169738462611,0.0003362702495402119,,,,
1.06,-0.8385466995199085,-0.13768490616133036,101.00832098745119,-0.016433994188289388,0.0691574673133968,-0.0004178165585443651,95853.30515096948,,,
1.07,-0.7731500802132261,-0.10512183835782646,101.12332045361262,-0.01502927771525871,0.06654936439410405,0.001351731300359171,,,,
1.08,-0.6999378204327426,-0.07694810735173216,101.23037436049654,-0.014549869293651619,0.06869549777115304,0.00021932002882833578,95829.88598768074,,,
1.09,-0.6340202453064692,-0.031908204682539416,101.3467978038003,-0.013987929575585582,0.0644545242220624,0.0022324939143092233,,,,
1.1,-0.5650685539169126,-0.002539196106703872,101.46502421363438,-0.013302951317906682,0.06219544030077266,-0.00017371987286258822,95804.49460672078,33.498625754106186,-99.33762498571964,475.3037899111782
1.11,-0.505459113435636,0.024338635481205365,101.5716461447953,-0.012099528712305596,0.05791433208742614,0.001588392259910547,,,,
1.12,-0.44492898739953124,0.06006119691542969,101.67437439487234,-0.011996269477545977,0.053260947704790215,-0.00010736256317649176,95779.40319871495,,,
1.1300000000000001,-0.3907629347265343,0.08377316834424862,101.76338097532447,-0.010985827799032026,0.04963469638922441,0.0014481044269055343,,,,
1.1400000000000001,-0.33638610624404985,0.1085825779862843,101.84509440899637,-0.011488763540231109,0.042174044789396216,-0.0016623689861808965,95753.8236174366,,,
1.1500000000000001,-0.2912073107552946,0.12932675597749863,101.92472939001154,-0.009518142365403548,0.03469060298102858,0.0009970635749678067,,,,
1.16,-0.25325493614408573,0.14224110150672656,101.99162369986799,-0.009130160503634223,0.02735248295697864,-0.00011777424226066689,95727.47576825408,,,
1.17,-0.22268189862970936,0.1627437753861396,102.0745750915407,-0.007700430169869036,0.01937502144206396,-0.0009127893724508888,,,,
1.18,-0.20025182146087794,0.16932871873623453,102.14411946141271,-0.0031146201075905157,0.013608226559196402,0.0010375050855349647,95700.30867425798,,,
1.19,-0.17936828553371012,0.17598931040883842,102.23146927089748,-0.002101156990253959,0.006031461832372628,-0.0004326634496848891,,,,
1.2,-0.17492749793380025,0.16954548347733234,102.31730091767,0.0012558088053733806,-0.0034326802121027334,0.00017116404083017693,95672.50600666748,33.4986042993569,-99.33763049140065,480.02691752256624
1.21,-0.180613017389365,0.16302879837898732,102.4056937187474,0.0007045958097876229,-0.010152111769645459,-0.0007054857034820021,,,,
1.22,-0.19557191673769744,0.160643071016536,102.48695808237676,0.0016145265467128259,-0.017288784458191882,-0.00038576449704837937,95645.24426129372,,,
1.23,-0.21501839988306515,0.1422760883282256,102.57190455748197,0.004480883353671814,-0.02445475459562397,-0.001350893609348003,,,,
1.24,-0.24456489447557367,0.12933342753764224,102.6408835779111,0.005382384795146146,-0.030126575585508013,0.00010693210785594513,95617.31651374293,,,
1.25,-0.27607346515850195,0.10035535433051698,102.70440194958553,0.00598059070580419,-0.037226278848287456,0.0010049320467555892,,,,
1.26,-0.31978264458760414,0.08407000110766755,102.76381786389656,0.009329272556390222,-0.04317286040553899,-0.001855486379771483,95587.11968067926,,,
1.27,-0.3717229278765183,0.05488672114428998,102.81232272516381,0.006803750552363083,-0.048530281367036875,-0.00015321634818362903,,,,
1.28,-0.4294791401786948,0.02056989476580503,102.86597299681952,0.01035592438536744,-0.05262968853232895,0.0007571601835727297,95558.03630380411,,,
1.29,-0.48874435308137193,-0.014494613699872856,102.91366210566252,0.009914699171934398,-0.053798770577006085,-0.0010932533920239406,,,,
1.3,-0.5515935687051166,-0.04954811873478053,102.96314349346326,0.009944064913382063,-0.05803212641771633,0.002101684430804611,95528.85463352778,33.498629505470795,-99.33767439538856,491.99869314400405
1.31,-0.6260890470905034,-0.08217738768208906,103.0377067753846,0.009031562780495895,-0.05767115721596355,0.001357595068619641,,,,
1.32,-0.7025331097017175,-0.12259243087197677,103.11839044367574,0.01065877931107964,-0.059461445943024195,5.5335174222764326e-05,95497.72045922535,,,
1.33,-0.765288872720267,-0.17123662756997438,103.20903539134075,0.008565343520589951,-0.05979896508102435,-0.0008730183037519966,,,,
1.34,-0.8439274612040025,-0.20083671400892344,103.31430724538315,0.008255963939685718,-0.056658069811802755,0.00030174460635723293,95468.1683590858,,,
1.35,-0.9091362985363758,-0.2317609741264726,103.43234001030632,0.011811606646037698,-0.05479276726763476,-0.000806201583136077,,,,
1.36,-0.9709332046412954,-0.2687125715016155,103.54825405428659,0.010272735937291368,-0.05004709408856168,9.953696600572108e-05,95436.04942701061,,,
1.37,-1.0332291783949425,-0.3007965827103845,103.69196749752369,0.00875718429633625,-0.04800967772608004,0.0024728410566797793,,,,
1.3800000000000001,-1.0851904922997644,-0.31928709095043933,103.82462921760457,0.005402355108934446,-0.04300041837078179,0.0005852687502904678,95404.51971698483,,,
1.3900000000000001,-1.1303163517894885,-0.334253360890517,104.00906924826523,0.005797949197011602,-0.036593455438899636,0.0012553745109971253,,,,
1.4000000000000001,-1.172255294552791,-0.3566091018024858,104.18053846537137,0.003518410836485745,-0.03033587837874837,0.0005405287121912932,95370.9082742099,33.498604240610305,-99.33764440592371,512.6836320191306
1.41,-1.2014415791346504,-0.37053547389649943,104.39867565383494,0.003938132168961811,-0.025410293920802317,-0.001671604953923433,,,,
1.42,-1.216914900210759,-0.3759672742297554,104.61784198863126,0.001966188308935015,-0.020607020405144283,0.0022281924816319946,95338.7725146938,,,
1.43,-1.2311011825133988,-0.3733663403947768,104.77851645712428,-0.0005319834532575536,-0.014547746751984114,-0.0011189344393967551,,,,
1.44,-1.2213768191774035,-0.3690956388770932,104.9316247148904,-3.417360308709337e-05,-0.00871056284662577,-0.000962266996829845,95305.95102401158,,,
1.45,-1.2180379976982143,-0.3591060472338914,105.01212690138128,0.0003373149565007909,-0.0017300001245774792,0.0005619467764313323,,,,
1.46,-1.197674803850702,-0.34310015884723377,105.08384834497228,-0.002887636057696524,0.0036704442180768783,0.0008427270082930424,95270.35035742413,,,
1.47,-1.1636006445173774,-0.31917500930204307,105.05794747292383,-0.005293683775992134,0.007315602611550695,-0.00018213660725385495,,,,
1.48,-1.1306215679026546,-0.29909615122207295,105.0260638092855,-0.0033117332843718497,0.012743550343833126,-0.0009905377159408798,95236.48056005381,,,
1.49,-1.0847962154865225,-0.2638585459792754,104.92755222413928,-0.005478375379937326,0.016979595505921756,-0.00039878183578485914,,,,
1.5,-1.0308606033004537,-0.23484642461290092,104.82954353697147,-0.007245650234193813,0.019349414805136984,0.0018893707921226958,95201.67467321812,33.49866707761517,-99.33757002897872,526.3383045658966
1.51,-0.9752000437273641,-0.20503398703246226,104.76032403252417,-0.006090654428949162,0.022999459031431444,-0.00021892671545829714,,,,
1.52,-0.9178420043027444,-0.17117576872064214,104.69332327070903,-0.0062996392028219295,0.021975164665890078,0.0001223005240673755,95166.10535582328,,,
1.53,-0.862411500830105,-0.1353880035214519,104.67744206252057,-0.008310355251787357,0.023860753285494744,0.00131004591539681,,,,
1.54,-0.8026045213007019,-0.10312647007145324,104.65741824980937,-0.0060755231774082975,0.023041197951286944,-0.0002544878047734155,95131.24233334983,,,
1.55,-0.7424721448461867,-0.06870591837891343,104.6648547236438,-0.005897802034899782,0.01973052140539721,-0.0009731864390166408,,,,
1.56,-0.683667859829251,-0.0433058343108398,104.66376268679788,-0.00613419803128271,0.019242515667893024,-0.0010047549664810745,95095.17540339053,,,
1.57,-0.6355296463884643,-0.01523398038664725,104.6302406965889,-0.004295284837836493,0.01567153437954457,0.0005722112318725924,,,,
1.58,-0.5850818091846859,0.0018508310269836463,104.59153342793999,-0.0035371872520101487,0.012827685442719719,0.0024648794916857925,95056.13721991693,,,
1.59,-0.5602103885954504,0.01686449145961089,104.49278395092388,-0.0030561963981400723,0.00964855898444289,0.000714095596043904,,,,
1.6,-0.5342701281283858,0.026335337933757866,104.40734993434542,-0.0021212883957657225,0.004742519668574672,0.0009224258562751729,95018.9202573171,33.49862248756215,-99.33765308020534,544.0897965487011
1.61,-0.5168561814157053,0.039729631983678536,104.2470063532004,-0.0009730641598825796,-0.00025009721783000166,-0.0005644133721928253,,,,
1.62,-0.5076786113949878,0.041142276632248016,104.08322795017668,-0.0007819282277964797,-0.0034693875767365778,-0.0003435193697688353,94979.83007297193,,,
1.6300000000000001,-0.5168835452688196,0.03533878031761459,103.88308790224283,-0.001437481587651648,-0.011492422118045326,-0.0004998016920944739,,,,
1.6400000000000001,-0.5341382424624299,0.021035211283282486,103.69082944052847,-0.0006394072519091427,-0.013631712177690391,0.00013003810493909693,94942.33387840627,,,
1.6500000000000001,-0.5519636939762899,0.0067330305739965735,103.49217879400562,0.0017357916620170505,-0.016055108265780382,0.0010002953484720537,,,,
1.6600000000000001,-0.5853930195768728,-0.013188998285446764,103.30482788151176,0.002705195851805772,-0.02058526909253489,0.0007667480701942851,94903.06115263262,,,
1.67,-0.6236632413936289,-0.03454029395973623,103.1269688999897,0.0029543247999824548,-0.024341653720435136,-0.0018558085156030503,,,,
1.68,-0.6715424976047547,-0.06397710715039406,102.95413456582338,0.0036332363748773394,-0.025889357151199225,0.00011905424934687094,94862.14068868199,,,
1.69,-0.7207890110468081,-0.08654630197779437,102.7854929513742,0.005560485768825629,-0.027868320052463945,0.00027727831145819837,,,,
1.7,-0.7669669094813768,-0.108708502844894,102.62517341671321,0.002868379205895174,-0.02777134042764148,0.0006216481628154321,94823.65014799617,33.49857850901594,-99.33764501763977,559.5943589747889
1.71,-0.8188446536909728,-0.14176687867044183,102.45545798947755,0.003941423251879407,-0.026620051505634224,0.001579080549591286,,,,
1.72,-0.8709283801030206,-0.17295376353812253,102.2918680230944,0.0013601667366999253,-0.027381731827274443,-0.0004939476769523078,94782.10460625295,,,
1.73,-0.9112903731784714,-0.18607592812282028,102.1338220735861,0.0034143953278788406,-0.024758068789273002,0.0008131277169250229,,,,
1.74,-0.9616147068335006,-0.21553268185236585,101.9789578522066,0.0019268671198489683,-0.02453008787086287,0.00035059896605849105,94741.38751955071,,,
1.75,-0.9961736544470825,-0.23648583685593816,101.8392509261187,0.002066893849138933,-0.02150248611350271,-0.0011671337027694345,,,,
1.76,-1.024739799206865,-0.24806549474035564,101.69921222358977,0.0037705554633658584,-0.019641834514283793,-0.0013377190344674714,94699.99601860064,,,
1.77,-1.0446873613146586,-0.2550206654340993,101.58139692524449,0.0026202667835190925,-0.015555465333931732,-0.00165727690768226,,,,
1.78,-1.0588932963750464,-0.2594601089357199,101.46675377143778,0.0003344215198350934,-0.012989497141619644,0.0008021357178598625,94658.80303686191,,,
1.79,-1.0573633711329833,-0.260632543722391,101.37140970184032,0.0011557702219848571,-0.010323380408610994,-0.00029548870987973854,,,,
1.8,-1.0500077924410536,-0.25178650734222446,101.27200122005814,-0.0003637398520828832,-0.00612854105716756,-0.001624364303406779,94613.8989608134,33.4986207684241,-99.33761310238805,569.7710382849598
1.81,-1.0424061352811531,-0.23609719042259183,101.16424632514243,-0.0004085611767698545,-0.004322370258625459,0.0014450010794443368,,,,
1.82,-1.019954655629861,-0.22152332158007826,101.05164024435493,-0.001580830522722723,-0.0015653511302245043,0.0010489778010912534,94571.54480273409,,,
1.83,-0.9907991111293506,-0.21087796722118524,100.90358584454057,-0.0016342577617169533,0.0007357083972291511,0.0007791464822670233,,,,
1.84,-0.966143616045387,-0.1885950783797839,100.74399991226295,-0.0009469744595547263,0.001346224329586433,0.0011986543997955495,94529.47621656764,,,
1.85,-0.9298608103287921,-0.1652733866860299,100.5168362993051,-0.002698550567768152,0.0036223394021232024,-0.0004433456588965039,,,,
1.86,-0.8838285631782885,-0.14675706156657475,100.28507289272432,-0.0022601804775848186,0.005779633478853106,-0.0008119674882704831,94484.2209400768,,,
1.87,-0.8527132287397048,-0.1183690019728572,99.9915773263952,-0.0039206164206097415,0.0009132526014244409,0.00047839435447111087,,,,
1.8800000000000001,-0.8189141655289492,-0.10843423864679842,99.69487171528104,-0.002352024905578469,0.002600016211286836,-0.0005160496877859657,94439.5626992772,,,
1.8900000000000001,-0.7963742163378139,-0.09091657216213483,99.37237115531124,-0.0023195879864040527,0.0021257583164308314,-0.0005697323339049723,,,,
1.9000000000000001,-0.7586280262637083,-0.07569470695761003,99.03747621793934,-0.0028035871751396725,0.00072875844638099,-0.0014200665566452015,94393.90742796197,33.49865267070266,-99.33768642971602,603.0039511951624
1.9100000000000001,-0.7413796861695112,-0.05661817923237027,98.69990692350461,-0.0007268865698788937,-0.0008130465705219194,0.0006647861821306897,,,,
1.92,-0.7312674488962218,-0.059996259976382735,98.34966213811043,-0.001645841125217651,-0.0025553995080031056,-0.000683357326491862,94349.30818628993,,,
1.93,-0.7230301645561245,-0.05608521250461185,98.02178399839352,-0.0009411721151806726,-0.0030935391084484856,-0.0014221874369085565,,,,
1.94,-0.7297845540169996,-0.06220994267012221,97.70101861759922,0.0028418690100929823,-0.009684820225935482,0.00045583270540254555,94303.07047427222,,,
1.95,-0.7368383381221194,-0.05890077024080638,97.38023355005981,0.001893810748511212,-0.009390598414093248,-0.00010901007611128492,,,,
1.96,-0.7568107405982544,-0.07125457219293373,97.05608144390428,-0.00019341774160243656,-0.01027089694198766,-0.00011259936158602508,94255.44297656784,,,
1.97,-0.7731980515210728,-0.08413389028842305,96.70073372303415,0.0009365387464041168,-0.014192589495770146,0.00015465616367380658,,,,
1.98,-0.7980842227915957,-0.10182100612578598,96.34176208859908,0.001959907149758375,-0.01336036391528686,-0.001008363862255086,94208.0195854194,,,
1.99,-0.826238357264866,-0.11648503444988305,95.96822844705288,0.0029324239611641977,-0.014457580162738685,-0.0008777658366373055,,,,
2.0,-0.8572888445843878,-0.1308540996411222,95.58572759730781,0.0011004900013102839,-0.014919954368346559,-9.73953139363118e-05,94161.75208514075,33.49867818365126,-99.33765924193995,612.5701775378991
2.0100000000000002,-0.883407355713989,-0.14309691656299117,95.18530536992716,0.00011145600272387279,-0.014185070711652436,-0.0012305883852864136,,,,
2.02,-0.9149710385095311,-0.16167954370165846,94.7797419887542,0.0012169943674179263,-0.012500562536373966,0.0011499449627934242,94113.19890039382,,,
2.0300000000000002,-0.9362563455510373,-0.16976969640187442,94.33877557013511,0.0011719616434121513,-0.011441199013478613,0.0006735025396846384,,,,
2.04,-0.957108417446696,-0.1798911604519501,93.90312070032752,0.00014967368502357586,-0.013092777235198505,0.0017211409716485287,94064.35747285608,,,
2.05,-0.9726829791233019,-0.1877417542523013,93.3812263798875,0.0027182475534572956,-0.009674451201229084,-0.00010784549161638036,,,,
2.06,-0.9782667152853028,-0.1848323506311579,92.84372502785091,0.0016038508722557487,-0.009774132899951084,-0.00021492310401016054,94016.64372401522,,,
2.07,-0.9795062553815604,-0.18630856903014473,92.21396882060759,-0.00047312961868523,-0.00811572040173636,0.00037673471992150093,,,,
2.08,-0.9778185917228451,-0.18292990002426454,91.5780375230701,3.896206737479305e-05,-0.00772154877368805,0.0019091931030948159,93967.4574780096,,,
2.09,-0.9742460206360104,-0.17790621182714292,90.87310342873883,0.0020200001648878457,-0.005610571992854073,0.0004039531627589327,,,,
2.1,-0.9600585119698231,-0.16419416706763146,90.1659075110942,0.0003372990954537251,-0.003337101839316509,0.0009616893125447624,93917.30068501315,33.49863254519022,-99.33772049931837,635.8631755888633
2.11,-0.9439516539766051,-0.1591508215360783,89.44120573522416,0.0016507337758249032,-0.002932229423163121,-0.0008201994831162036,,,,
2.12,-0.9217496063989709,-0.1501560164037091,88.70913163535964,0.0001589230085047782,-0.004869513777198364,-0.0012653865672022716,93866.77181225321,,,
2.13,-0.9044835303612384,-0.1411488785663265,87.98834848074407,-0.0008396585689712922,-0.004561491276159452,0.0008281183529849044,,,,
2.14,-0.8862510057792673,-0.12105145318191718,87.27884725826353,-0.0027405048760849858,-0.0034308055820185105,8.402676624245731e-06,93816.60464078946,,,
2.15,-0.8724562748239733,-0.12284208997103488,86.61670965945235,0.0007741396338303154,-0.004101877162588293,-0.00043373173673686387,,,,
2.16,-0.8605654925616157,-0.11208745242120571,85.9660397425358,0.00023300999774122152,-0.0025812874907004788,0.0011149358456179364,93764.99010545084,,,
2.17,-0.8544602591300483,-0.1057651026345018,85.34742012455709,0.000534332900521502,-0.0037066862608257137,0.0018786453336496066,,,,
2.18,-0.8461463452866851,-0.0985141027837401,84.73051097280165,-0.0015517568198339894,-0.008140200038863836,0.001047856868525762,93714.55997005098,,,
2.19,-0.8450362031271214,-0.10194586733959632,84.1211153319887,0.0008686182393151129,-0.006789051412269462,-0.0006321518540148225,,,,
2.2,-0.8518572808200143,-0.1030121120204424,83.51296778276946,0.00027111467871075327,-0.00788798145951875,-0.0005362839609463031,93662.6857424769,33.49870806597167,-99.33766611951361,642.5156800838236
2.21,-0.8544254660746474,-0.10293521053586965,82.92319448082964,-0.001125353275521411,-0.008303016509815308,-0.0002580786064623075,,,,
2.22,-0.8638937662864556,-0.10966171000636192,82.33274921692829,-0.0003847916224791384,-0.00917327777521139,-0.001169573572483579,93610.69743931017,,,
2.23,-0.8778576212777395,-0.12004334549674668,81.7557507446736,-0.0010523594694805045,-0.011024521468055753,-0.0009273419901627824,,,,
2.24,-0.8941753086429919,-0.12908664797626007,81.17697923339084,0.0005514360582047407,-0.01070316464251885,6.3715110692622305e-06,93557.56804791412,,,
2.25,-0.9022439953645266,-0.13955057385619668,80.61845761808246,0.00014569744529671337,-0.009740172186565966,-0.0007302846740323768,,,,
2.2600000000000002,-0.9167154136341474,-0.14191925619967075,80.06231473420998,0.001203159251250017,-0.007938170242416397,-0.0011854161173074662,93505.26591074238,,,
2.27,-0.9368416290425631,-0.1455836636402204,79.56022888382604,0.0010478973110533865,-0.008952529206168326,0.0009251298288452018,,,,
2.2800000000000002,-0.9425845540212148,-0.15203038592104745,79.0645890684547,-0.000605058176035976,-0.009501615590521513,9.931153486855931e-06,93451.3564864866,,,
2.29,-0.9487603779639513,-0.15679336592974413,78.62030780860378,0.0005218059091477554,-0.009907424879018897,0.0019663392263071645,,,,
2.3000000000000003,-0.9565332456662773,-0.15106377919990352,78.17565495933094,-0.0010309107298615231,-0.008297383020228966,0.00013467127796098355,93396.1443889992,33.498649447049516,-99.33769485339673,689.908546869805
2.31,-0.9571061697977294,-0.14497125882902254,77.6882715874761,-0.00013456676946268267,-0.0077853556167897554,0.0006629447235815366,,,,
2.32,-0.953353017973054,-0.15555561457071237,77.19883026086772,-0.0005846295606902746,-0.006750514850557242,-0.0011953307531780428,93343.45547034654,,,
2.33,-0.9523229920526297,-0.1491282284323509,76.57011317530444,0.000861180987922781,-0.005705442701849002,0.001039738392772106,,,,
2.34,-0.9491464093610544,-0.1479417606922256,75.93549035528918,-0.0013308784442034893,-0.006253267424827114,-0.0011295130702851438,93288.66596997938,,,
2.35,-0.9383382305845184,-0.14262181184101572,75.2862749439277,-0.0008414165227902904,-0.0050967448845251105,-9.143000122652452e-05,,,,
2.36,-0.9332983922713296,-0.1369033893005939,74.65558943502495,0.0006762888059247558,-0.004562772632203742,0.0003882373400257982,93234.0224513872,,,
2.37,-0.9241157385613424,-0.12457996068668437,75.77627345067387,-0.00026481741778047784,-0.007825280185000508,0.000949391366133465,,,,
2.38,-0.9286086920902548,-0.1299272830881099,77.0464840042141,0.0013528116658383842,-0.0067732900527453285,-0.0011631016605301936,93178.56121187494,,,
2.39,-0.9167868936560263,-0.12909218668904235,76.94762713692214,-0.0009823554211155598,-0.009128246787385707,0.0010876441466097498,,,,
2.4,-0.916911591977638,-0.12402061877273433,76.73760553824441,-0.0011022297554513305,-0.007150786875714173,-0.0005921338733539757,93123.04331926035,33.49860062404955,-99.33763371553053,714.6629310309966
2.41,-0.9110659303268707,-0.12538748320330648,73.04741675210542,0.0005894388187501949,-0.007467684145161465,0.00032474261604199686,,,,
2.42,-0.91378247642421,-0.12695316594995,69.05983429964114,0.0019012512089582754,-0.00809577914671573,-0.0011722291419802428,93066.82845043813,,,
2.43,-0.9154220140832412,-0.12044060902737239,64.32306445266703,0.000269843436672444,-0.009149541818119934,-0.0006777805329998323,,,,
2.44,-0.9133433699252387,-0.11994523685453495,59.530400592604124,-0.0003985477902774528,-0.00684720662219174,-0.00016404222846169272,93010.44295666151,,,
2.45,-0.9299151329700007,-0.12910173781881307,52.78417331071073,-0.0003963282152951027,-0.009400361668885662,-0.0012660977368259409,,,,
2.46,-0.9481953405239479,-0.12904293341278567,45.87227210405667,-0.00046290918869722685,-0.008709840442951696,-0.0014687535748929528,92954.84667255421,,,
2.47,-0.9651580784866018,-0.12946556305916745,40.41910848455235,-0.00033399956240620643,-0.008195830988974171,0.0008921650118884945,,,,
2.48,-0.9773729596826095,-0.13514932920692402,35.09426426947257,0.00034687054706000737,-0.00886639375221828,-2.2028664440697805e-05,92897.39236536715,,,
2.49,-0.9846875876904837,-0.13194311600680284,33.28407808986421,0.0007432934194815429,-0.009693511135621781,0.00031961270283589635,,,,
2.5,-0.9853198401936054,-0.13730071567653246,31.76866844826711,-9.563776235736103e-05,-0.006445317963474816,-0.0009820143703621752,92839.81272123817,33.49867284844406,-99.3377538255216,734.829532678282
2.5100000000000002,-0.9898152370250196,-0.13562015303640562,31.100438491572913,-0.0005136527206301982,-0.006836613062017597,-0.0002939512446731473,,,,
2.52,-0.9881046995914154,-0.1417777122809941,30.508292169676732,-0.00044419755926799163,-0.005034419114538005,0.00045796631165937,92783.12244422991,,,
2.5300000000000002,-0.9844889789769287,-0.13443958384973942,30.09101429594706,0.0014703065842025303,-0.0050711424467594374,0.00041763185055461097,,,,
2.54,-0.9777392841087991,-0.13582942782211724,29.675395860480304,0.000981965408527303,-0.006712949443677783,0.0011295817509286983,92724.99235206943,,,
2.5500000000000003,-0.9721069952396522,-0.137729263515179,29.28013602261139,-0.0011966340132078548,-0.004944217490252212,-0.0015908345939556888,,,,
2.56,-0.9655753257498293,-0.13767095265032117,28.87032531408906,0.0008403508692814701,-0.004272971421349123,-0.0007064701786146923,92668.76204705589,,,
2.57,-0.9592885935893449,-0.13257069654697057,28.59487574607868,0.002961104651312046,-0.005724305237850758,-0.0006009145157295239,,,,
2.58,-0.9484513905778255,-0.13425492942892442,28.342287813453297,-0.0013446167915035314,-0.00500305005394845,0.0011586268914229546,92611.50582125713,,,
2.59,-0.9458940509284115,-0.12907597163753493,27.97480903655887,0.0023854185966758826,-0.006538002028442775,0.0018474059436484188,,,,
2.6,-0.9425114507578475,-0.13763472049579062,27.588409569414967,0.00324691135238271,-0.006276649911361514,0.0007211904821943114,92552.73942898461,33.49866677442363,-99.33768149489384,753.3164019262341
2.61,-0.9460886554250088,-0.13461728007598595,27.187014389695143,0.001745226180327044,-0.005968789581906957,-0.0033575242628312812,,,,
2.62,-0.9471375159199524,-0.1333735991831136,25.337342674914353,-0.00106249173698474,-0.006246220436434242,-2.129597629451624e-05,92496.35851136124,,,
2.63,-0.9488688556972947,-0.12928123227089328,26.394760024424116,0.0004928018168643036,-0.007508930870738174,-0.0014900245213918723,,,,
2.64,-0.9583734281719433,-0.13346746720408276,26.009175711692535,0.0004305929817395434,-0.005297755083163642,-0.0002772822928034368,92438.61285994004,,,
2.65,-0.9638124206516908,-0.1345061852635858,25.63498971713353,-0.0004969458626305817,-0.007731728453000298,0.0011504099145121893,,,,
2.66,-0.978712325965583,-0.12838830867852555,25.2563724581798,-0.0005428304381862455,-0.0075342555573679635,0.0002978559552643907,92380.33085040143,,,
2.67,-0.9766098359828248,-0.13501358631439744,24.924638185595413,-0.0007922363207187786,-0.006559410484621719,0.000922115725151912,,,,
2.68,-0.9805182462977914,-0.13220578098759322,24.596476406577704,0.0019268711819894146,-0.00766406943532425,-0.00011624659335950596,92321.84780237616,,,
2.69,-0.9824911276537949,-0.13741427564234643,24.303714998411973,0.0016144969864494625,-0.005841859099013372,0.00022286448789039933,,,,
2.7,-0.9855132822897695,-0.13607921189127306,24.007271981299763,4.593700005612477e-05,-0.008394534963270459,-0.0007721907384208066,92263.02790000732,33.498617880621076,-99.33763458340927,784.8618115348952
2.71,-0.9887041125298365,-0.13574955066346653,23.714237009526798,0.001120588001986383,-0.006652574342107921,-9.555648712799806e-05,,,,
2.72,-0.987388067276136,-0.1351665399821014,23.41793425157302,0.0007851577796208871,-0.005547099475159816,0.0001551202751759856,92205.40092812623,,,
2.73,-0.9919445644022149,-0.13835270406487493,23.127115758378093,-0.001303086839346961,-0.008405755460294071,-0.0006695735221372683,,,,
2.74,-0.9929394515716246,-0.13449785294155003,22.83200879429679,0.0018359113978538588,-0.006860588562075546,-0.0015606154457259596,92147.1497135338,,,
2.75,-0.982119638469543,-0.13285432432436628,22.542996724092216,0.0009452394089470103,-0.006070476637071286,0.001001151143119892,,,,
2.7600000000000002,-0.9870590280295626,-0.13254523603056642,22.255118871757787,0.0022257595320929044,-0.007098870455980523,0.0006032688684832622,92086.80052653112,,,
2.77,-0.9815648382457803,-0.13213468962952465,21.97054764809575,0.0006898178437536791,-0.006363910049821315,0.0005925247503045852,,,,
2.7800000000000002,-0.9841286792892062,-0.13782186636108043,21.686380303364512,0.0010110131526570585,-0.005621051313351554,0.0009803414416135075,92027.70962549826,,,
2.79,-0.982092951012107,-0.13218037177199593,21.421558251371945,-0.00046265625577974925,-0.005358225586647784,-0.0004320904953499156,,,,
2.8000000000000003,-0.984939555166097,-0.1274855456454774,21.162377827866614,0.00023342773051271512,-0.005332606683600348,-0.0003987338495601508,91969.55305298057,33.4986013731228,-99.33773082910514,811.2170381370369
2.81,-0.9874233432230863,-0.1345375515021741,20.92248249554207,-0.000757675723724063,-0.008274862120859637,-0.00015380855257375936,,,,
2.82,-0.9956714233442048,-0.13646232674506145,20.68933064370165,0.0006018372379390721,-0.007570439486706766,0.001596598455588584,91911.20379391585,,,
2.83,-0.9889410722238011,-0.1318024412705332,20.4535524753327,0.0028798317866622052,-0.006744621056403168,0.002975936980180521,,,,
2.84,-0.987789989181657,-0.13213943987312748,20.202711246153605,-0.0012412896672614603,-0.006208439167195526,-8.618670484929954e-05,91852.85015568833,,,
2.85,-1.0014615245420857,-0.13454013571336745,19.998549381590227,-6.65787063721843e-05,-0.007685370767188672,0.001023161899066196,,,,
2.86,-0.9924825094707012,-0.13668870195928415,19.79876473551939,-0.000908081306025455,-0.006671747953352325,0.0001839028719564221,91793.16562414305,,,
2.87,-1.0063166425481638,-0.13699183928592693,19.58609474835072,-0.0008539851119299004,-0.007333672065071834,-0.0014867847764755613,,,,
2.88,-1.0061989810436056,-0.13213136648308046,19.37108295967212,0.0014616460725166958,-0.008182325845597879,0.00011639917865673527,91734.655376817,,,
2.89,-1.0009659458928577,-0.13727486827569793,19.108019017082672,0.0007329860578273344,-0.005812260510567226,-0.0001864240069401471,,,,
2.9,-1.007135690600459,-0.13760531758956362,18.855654822030164,0.001198657200530035,-0.0066720333365931994,0.001086032914992156,91675.08313967178,33.49865379031259,-99.33771643185602,838.4806618171186
2.91,-1.012307006482365,-0.1348823829257263,18.590180871623023,-0.0009692220255278905,-0.007238016444784189,-0.0010806138418455644,,,,
2.92,-1.0076684749768163,-0.13120088998232995,18.32368845176832,0.0011215190680955406,-0.007792072753783409,-0.0007035504459325483,91615.55858765579,,,
2.93,-1.0125462516603239,-0.13847971380683605,18.043004272906764,-0.0005674542656918205,-0.00710944705203804,0.0001487689719959391,,,,
2.94,-1.0028569668735294,-0.1329025831409569,17.750349616185694,0.0008938796100700171,-0.006419572560955316,-0.000724285498484821,91555.11711461288,,,
2.95,-1.011366029249542,-0.13780873509680505,17.436630274270055,-0.001725355033904179,-0.006755021065941243,-0.0007814525176010002,,,,
2.96,-1.0061551012805698,-0.13758655903638586,17.119978850943575,0.002009498928574984,-0.0064596501077745574,0.0026202341823562706,91495.29888045395,,,
2.97,-1.0061424173656828,-0.13513589313550228,16.79893419512882,-0.0001980050003325452,-0.008287948314057322,0.0006530846923036774,,,,
2.98,-1.012905063028884,-0.13440375158304574,16.47548102017419,0.0005186600569638742,-0.005591555175234461,0.0007233076239941752,91436.4502276904,,,
2.99,-1.011079384003265,-0.13721875307005593,16.141494254667542,0.002207423756469809,-0.0071701672325073336,9.392219488021019e-06,,,,
3.0,-1.0126671010003632,-0.1392985863144508,15.803407279407246,0.0021658159298815253,-0.0067391415510556435,0.0013789917500678078,91376.72693095173,33.498717077038116,-99.33775629996136,859.8598013116356
3.0100000000000002,-1.0091101157473774,-0.1374377878702761,15.471590163037792,0.0016834034621603532,-0.005412512036291069,-0.0017101524835427112,,,,
3.02,-1.015579134750949,-0.13969042288778594,15.141182178197091,-0.0017809048778610413,-0.007790433826642183,-0.0016645876804767172,91317.66554945751,,,
3.0300000000000002,-1.0173662176681013,-0.13389804349180917,14.82551203274431,-0.0002103812753297316,-0.005778026707443395,0.0003011556413875065,,,,
3.04,-1.0190704383671627,-0.14012181738504972,14.501866047998506,0.0008576762919741791,-0.006811831103468012,0.0009944794224123394,91256.40045105807,,,
3.0500000000000003,-1.0262021991733918,-0.13591600164136328,14.203470044351004,0.00037919262882537424,-0.008748553848278875,0.00027940594879684116,,,,
3.06,-1.0250499395921828,-0.1358501932693744,13.900884560326006,0.0005696843878277448,-0.006296497791238425,-0.00041729567986354386,91196.94744823278,,,
3.0700000000000003,-1.0293642202401774,-0.13714642602896615,13.603746106130014,0.0008305651154568228,-0.007589563396696,-0.00018481579722351597,,,,
3.08,-1.027502121804044,-0.13590996414290998,13.31135258704894,0.0003688660069822746,-0.005425886834051094,0.001209377728821156,91135.99101925403,,,
3.09,-1.0281281288546684,-0.13825964224435566,13.014610295509165,0.00022323109611744598,-0.005784795556635778,-0.00021763496089066881,,,,
3.1,-1.0292984624465555,-0.13940131796213218,12.725669029111165,0.000997154732165109,-0.005800955891922871,-0.0004896171098530719,91077.24254230631,33.49866240127937,-99.3377461842172,888.9140977558109
3.11,-1.0253635074678802,-0.13441248984258428,12.467386704450766,5.643297284603933e-05,-0.005881224987531349,0.00022532631411276266,,,,
3.12,-1.031647153225485,-0.14032946278539252,12.222460978409837,-0.0018252710710204663,-0.0073574660392126965,-0.0008689108915220297,91016.48886899964,,,
3.13,-1.0278270030970131,-0.13721498679464753,12.011863897453642,0.001612248385123995,-0.0048827233921375605,0.0007227138663268645,,,,
3.14,-1.0314832774661866,-0.13442373773888155,11.80930653020099,0.001172613184924775,-0.00632499974719759,-0.0009371670502876479,90956.98882823967,,,
3.15,-1.0325474345014716,-0.14043113017388004,11.624051613618413,0.001607724133978056,-0.005857942719526476,-0.0011441654322483748,,,,
3.16,-1.0367102963051185,-0.1356220301105507,11.43662498268486,0.0007972220938707538,-0.007329177225490521,-0.0019285217336622938,90896.89772087117,,,
3.17,-1.0349470278203623,-0.13790975838586497,11.249572018413568,0.0011195065982269991,-0.0070470681977353004,5.013318579150517e-05,,,,
3.18,-1.0350214116952903,-0.13757215352058152,11.067871209900877,0.00019660666175392688,-0.005439799978274741,0.0008181572472268838,90836.19340301906,,,
3.19,-1.0413972220550805,-0.13180812415722332,10.844928033198872,0.00024867332730667865,-0.005693852343559787,-0.0011909395423471616,,,,
3.2,-1.0438874795244504,-0.13963015992555197,10.622377577599737,0.0006461051695221314,-0.007331985791499081,0.001003301655341285,90775.52251936492,33.49870269064988,-99.3378058983865,908.4594278806062
3.21,-1.0398513321140455,-0.14060859503414974,10.335212925900391,0.0012886635376042938,-0.006631309816245215,0.002331245529445747,,,,
3.22,-1.0457095813063477,-0.1411845315363437,10.060013964629881,0.0014584680278651309,-0.007008314084054022,-0.000989613405437472,90715.50348645527,,,
3.23,-1.0404204319274006,-0.14481190410670183,9.688663970995652,-0.0008970280849580606,-0.007201422041695965,-0.0012051655094039123,,,,
3.24,-1.0465302955468634,-0.14185235899659182,9.303746429831856,0.0006830658709791482,-0.007126269782674244,-0.000622760666281368,90654.56316617168,,,
3.25,-1.0463668263319197,-0.13864949882976965,8.79923384564983,0.0012108757091337135,-0.009343271222548698,0.0009365420004748224,,,,
3.2600000000000002,-1.0486503051458063,-0.13780526573308252,8.289366230143544,0.0008297396721568037,-0.007047226569216758,0.00011333420097660088,90594.39692471149,,,
3.27,-1.0521660117876979,-0.14014594338570596,7.7501998858824,0.0009885022660360418,-0.0082027862063131,-0.0008249048780075252,,,,
3.2800000000000002,-1.0492254795560576,-0.14163247997477674,7.196516066439466,1.7721018137487662e-06,-0.005970598577370401,0.0012200985998669018,90533.9842120869,,,
3.29,-1.0477604642686937,-0.1461541439816845,6.60784433061345,0.00020014502455242063,-0.0068160192376355115,-0.0009985196008674524,,,,
3.3000000000000003,-1.05593451858428,-0.13871056938100468,6.016664246466433,0.00019461722748898822,-0.006659813356528606,0.0005403227445148739,90472.97624872734,33.498710325502394,-99.33779906762723,948.6474103482043
3.31,-1.0524664723765778,-0.1372646800069664,5.396495479202281,0.0012357381025534257,-0.00783932212435698,-0.0014007209680483872,,,,
3.3200000000000003,-1.0578164491156017,-0.1409212334632681,4.783438441593363,8.065459275193065e-05,-0.004879270964078844,-0.0007536241952203994,90412.40482756718,,,
3.33,-1.0545151097778835,-0.14106474158806043,4.096711698677434,0.000939545440210604,-0.007080049548681417,-0.0016269917144110658,,,,
3.34,-1.0582521987406752,-0.14319392271975329,3.408661761256156,-0.0006400602801938637,-0.00760733913109541,0.0018062349451554366,90351.173346045,,,
3.35,-1.0563867405280598,-0.14219593981258272,2.5097725268208406,-0.00010961059120170684,-0.007982083262102193,-0.0005949313808351675,,,,
3.36,-1.0644751314886385,-0.14326633167754513,1.604251268639172,0.001133933523622917,-0.008226956154712854,-2.5137102609952453e-05,90292.88626309263,,,
3.37,-1.0628125091004117,-0.1422841653586428,0.45168085208467507,-0.00032378370192555144,-0.006565464861815123,0.00023019929207271112,,,,
3.38,-1.0598011309681274,-0.1393566524382965,-0.7211486902942061,0.001455698726031585,-0.0055319196986584485,-0.00012786889520239803,90230.61476790158,,,
3.39,-1.062480402082277,-0.1388270238562429,-2.116728332540348,-0.0005713951731851407,-0.005988832878569552,-0.0006060344619586867,,,,
3.4,-1.0687233455076697,-0.14231470461079335,-3.521392058643568,-0.00036905299977134474,-0.006147449230381129,-0.0008005763692458072,90170.04648627464,33.49865507852111,-99.33781898781949,967.4252034041771
3.41,-1.068421655872505,-0.14303121691416293,-5.039063137672604,0.0010800143356703802,-0.005284733428299579,-0.0006742904329323361,,,,
3.42,-1.0709368943345559,-0.13793065638474938,-6.561451072790148,0.0008457925729927875,-0.007533437883212151,-0.001407231151092834,90108.47587103503,,,
3.43,-1.0689014703973563,-0.14018644112775872,-8.015246342593416,0.0019424044867783433,-0.006525197745885089,0.001835029269727277,,,,
3.44,-1.0663139202928213,-0.13670916087101795,-9.465274451034906,0.0010084782955821182,-0.007240873543133813,-0.00037954395432667154,90049.24691405738,,,
3.45,-1.074399806885586,-0.1338047671130602,-10.757973709899325,0.0007834625008223636,-0.005088216164016958,-0.0004396455135225678,,,,
3.46,-1.0722624831645313,-0.13730228627046465,-12.040766467521456,0.0016048507000243368,-0.008887517918584144,0.0002701285850029167,89988.30504441271,,,
3.47,-1.073294791481772,-0.13960303844094787,-13.160270348100267,-0.001082057896626146,-0.005245474568627832,0.0011761844599807562,,,,
3.48,-1.072286761344826,-0.14122490146272282,-14.264234235180723,0.0012890121219090575,-0.006355742123344669,0.00012946752810613152,89927.96082699008,,,
3.49,-1.0785852736283545,-0.14103998590077668,-15.221703505161342,0.0010107330094722101,-0.007411124207587259,-0.002312167573306242,,,,
3.5,-1.0774815652896097,-0.1482181591092779,-16.16448227075482,-0.00015340764463599133,-0.006000168014564163,0.0004891580655516462,89866.66487657772,33.49867956176488,-99.33781418638185,995.5953966546056
3.5100000000000002,-1.0810680752572919,-0.1437876862120666,-17.0422498016934,-0.00036962929373785816,-0.00846346380184797,0.0007895920422413963,,,,
3.52,-1.0765448957200483,-0.1473087431888354,-17.90714165682513,0.0013891284357209397,-0.006660647933478824,-0.0009289363641794528,89807.37557769967,,,
3.5300000000000002,-1.0842776812045751,-0.1408217113715747,-18.759785355667262,8.646933422780444e-05,-0.0055766601429106406,-0.001156731445618988,,,,
3.54,-1.0794285148650773,-0.14325640219941646,-19.598511370231435,-0.0004069701943651483,-0.006798585132512798,-0.00018995452526315908,89747.36190595562,,,
3.5500000000000003,-1.0847757482468658,-0.14771443810108165,-20.37057724650719,-0.00010945089127863572,-0.00690931017312754,7.467080982117564e-05,,,,
3.56,-1.0792308599183176,-0.13875823838944557,-21.12797236947592,-0.0013073745019715928,-0.0066904884324716545,-4.2847311547579616e-05,89687.20364271892,,,
3.5700000000000003,-1.0871066121277264,-0.14420163439192765,-21.89774967470326,0.0009851306826691463,-0.005705021066016918,0.0005342487388118933,,,,
3.58,-1.0861257517477503,-0.14277847531502766,-22.663004071150777,0.002363526489107093,-0.006310708401226344,-0.00021246987407030747,89625.94468007624,,,
3.59,-1.0892826234810007,-0.14269357248614378,-23.156857995232386,-0.00094920258497607,-0.007916783780391439,0.0006286260384529965,,,,
3.6,-1.0899438665904628,-0.1411189121473898,-23.616053704530977,0.000974923980672211,-0.007758600464456991,-0.0004763385449293021,89566.24938689054,33.498702005948694,-99.33783084805506,1035.6586023559867
3.61,-1.091188821912496,-0.1399553694539322,-24.082072566922555,0.002065135907210818,-0.005799967415113556,-0.0021309296742689806,,,,
3.62,-1.0905276042831231,-0.14576352088507727,-24.5468298549786,-0.0018126252367083398,-0.005878718416948469,-0.0023247006374665226,89506.26305154295,,,
3.63,-1.0926337089807752,-0.1422016644082091,-25.189155684943966,0.0020106150000896083,-0.006740009937850752,-0.001208600629640426,,,,
3.64,-1.0991489866807167,-0.14045690542488237,-25.85607407045105,0.00043041715709485725,-0.006899358311382538,0.0012854467944267498,89446.91552820688,,,
3.65,-1.102449050763555,-0.14765527555349328,-26.486098138993686,0.000610426661213649,-0.006715428936818836,-0.00034393942817613845,,,,
3.66,-1.0961901342685916,-0.14354311450524226,-27.112298039191455,0.0009108188756965997,-0.008527195801417642,-0.0009310807365223227,89386.70680946729,,,
3.67,-1.1037936827678263,-0.15078067512117732,-27.964169783917185,0.00022937169809345416,-0.006589571049981441,-0.0008576079218154006,,,,
3.68,-1.101371800365963,-0.14838236663979246,-28.83851470327161,0.0005592023388052778,-0.0077723619267181,0.0009279848548909479,89328.5352605232,,,
3.69,-1.099964235301094,-0.14111991082199535,-29.62333300689837,-0.0003284309074491241,-0.006902360670483221,0.0010713507501822757,,,,
3.7,-1.10415527102651,-0.14555512739137272,-30.39432548084038,0.00014133293760559677,-0.0038646199574786408,-0.0004293682136197813,89268.2901030656,33.49872005778944,-99.33780293397501,1050.8873802302396
3.71,-1.1092696906918045,-0.14912557912382282,-30.89815627401,0.001841254578989712,-0.006269015165012307,0.0006159267174642474,,,,
3.72,-1.1029700105810927,-0.14185910162781662,-31.37363304197636,0.00034850714092307656,-0.006185676099877277,-0.0016198929886225247,89209.53650426335,,,
3.73,-1.1042948179023226,-0.14070877277075267,-31.772000762681905,0.0007239516710190646,-0.008421083219969703,0.001301672488004835,,,,
3.74,-1.1127538838080366,-0.14008012464540684,-32.16258746966572,0.0016262899126720312,-0.006978579459696009,-0.0016129134912087216,89148.81500818027,,,
3.75,-1.1131909936284448,-0.14466302786317561,-32.495265190607824,-0.00016274031715193338,-0.005583885081824442,-0.0014555821137692672,,,,
3.7600000000000002,-1.1100377095598604,-0.14464590388269305,-32.80348492985732,0.00012293002344055905,-0.007298036394595137,-0.0005529014991543375,89091.68497310806,,,
3.77,-1.110919390640202,-0.14109750302265803,-33.058359237996704,-0.0006658994397181241,-0.006712810234517927,0.00033334697301874505,,,,
3.7800000000000002,-1.1190149080357998,-0.14290890570154802,-33.30641814159483,0.001486274432970263,-0.006494675682539502,0.0007668472322200751,89031.6822166905,,,
3.79,-1.1228834642173906,-0.14471121968571815,-33.50001476133675,0.0008952060747789696,-0.007703869474620159,-0.0005021466429363613,,,,
3.8000000000000003,-1.1159803357173894,-0.14233664084656142,-33.68604896735546,-0.00010692251770703693,-0.00584105777932773,-0.00037177840405740306,88973.25138758698,33.49866999882977,-99.3378131220363,1077.1827271204086
3.81,-1.1197324248641174,-0.14270994350163807,-33.81247812100639,-0.0005715012945598829,-0.006766246176128366,-0.0002910327013062505,,,,
3.8200000000000003,-1.1194633379054557,-0.15234894400468285,-33.929504507938326,0.0005182417798466315,-0.00681913732135023,0.0011518758538819921,88914.90515366882,,,
3.83,-1.1177066323614737,-0.1472665111140999,-34.00119931472511,0.0019239796825931408,-0.006429930903242606,0.0013979533614431217,,,,
3.84,-1.1211898504128237,-0.14398210832690858,-34.06161219558831,-0.001718531976598835,-0.006930222080547742,0.0004154470588047852,88855.48183891195,,,
3.85,-1.1226565704224736,-0.1427568722480324,-34.098003856011836,-0.0002924303834779179,-0.005829700237429401,-0.0004026667667185084,,,,
3.86,-1.1279221950521743,-0.14172659496693354,-34.129598551194015,0.0008469613744288009,-0.005529459323533936,-0.0015744663631345674,88797.39987433243,,,
3.87,-1.1263116839750644,-0.14469930014462704,-34.18139091102619,0.00023040531547609472,-0.005178340857993855,0.00027945511734793986,,,,
3.88,-1.130836810300706,-0.14642772091724415,-34.22521830929447,0.00103327146840321,-0.0070710834793502875,0.00019783564451525328,88738.48996687336,,,
3.89,-1.1309674109352867,-0.14086798629494615,-34.2738518547173,-0.0006927713806378438,-0.008706874911143274,0.0010175964399724942,,,,
3.9,-1.1293837252805252,-0.14735889615880457,-34.32675888282073,0.0007935580337964884,-0.006442579951749573,-0.0006302403873072101,88681.68390847386,33.49868609957597,-99.33784814605681,1103.40119144682
3.91,-1.135610794169141,-0.14331923830346016,-34.6613650921646,-0.00035530195890768473,-0.005115177645736394,-0.00035482166680232533,,,,
3.92,-1.1380911359361028,-0.14705365978780882,-34.62016312224751,0.0014066122006004844,-0.006727309203345058,0.0001207458337363294,88622.32787860023,,,
3.93,-1.1349378448817462,-0.14305419408592576,-34.587796369325865,-0.0002529130174238781,-0.00921156183673919,-0.0014296483223486351,,,,
3.94,-1.1371164443546251,-0.1449027266380998,-34.55228791558673,0.0005425967639483854,-0.007622202417086829,-3.831728940406632e-05,88566.03588249166,,,
3.95,-1.141171953356602,-0.14625806503644315,-34.50954508672671,0.0004752266628661161,-0.008352663292325061,0.0003640149863368089,,,,
3.96,-1.1410342554680892,-0.1466166100989924,-34.4757308337678,0.0019133682216664985,-0.007002052648552939,0.000676066416475869,88507.13579668698,,,
3.97,-1.1422596355752066,-0.15124746981371573,-34.442540767755055,-0.00087339720240168,-0.0073476080513069485,0.0002783520278522209,,,,
3.98,-1.1423571366990486,-0.14825640665059436,-34.39448884348002,-0.0017572262521760758,-0.006598806873129525,-5.610144540281611e-05,88449.70077611954,,,
3.99,-1.1444852174725688,-0.1493933729031397,-34.36279929257212,0.00038446652984686097,-0.007448200204605265,2.586541047977157e-05,,,,
4.0,-1.1466065938201928,-0.14903310855653282,-34.32494065153434,-0.0011931173070054413,-0.004700928391490498,0.00040846921798121056,88392.16037013159,33.4986716463842,-99.3378169814422,1138.8473217369763
4.01,-1.1450298885804,-0.14446426191077133,-34.29441797545587,-0.0005406303509845451,-0.007139244884416869,-0.0010001779736753369,,,,
4.0200000000000005,-1.1463696782250767,-0.14302833579856788,-34.254910422864604,0.0010283908917743246,-0.007479398572316967,3.0949585643564275e-05,88335.85025819765,,,
4.03,-1.1441786690873337,-0.14973566875098168,-34.21233799828014,0.0003108193580144499,-0.006584262947287407,-0.0002314283286352681,,,,
4.04,-1.150344497956734,-0.14887869863569936,-34.1792108693929,6.93932008791003e-05,-0.0058855928359406035,-0.0011429758370012037,88277.86815678545,,,
4.05,-1.146673889238081,-0.15102942506829475,-34.13929449861655,-0.00032202949287065406,-0.008845936154758621,-0.0010662353843206604,,,,
4.0600000000000005,-1.1545706376811062,-0.14400079968046148,-34.102946096533074,0.0014500513721921048,-0.007885545728671475,-0.0006160101658032196,88221.53791219088,,,
4.07,-1.1536945785202686,-0.14802186775309986,-34.06684276049008,0.00043075024102573575,-0.00843137925873957,-5.955388678516934e-06,,,,
4.08,-1.1519621625342185,-0.1571407828963715,-34.03417013398402,0.0016160826541296155,-0.006096070891749021,0.0013645734437641706,88162.48315696191,,,
4.09,-1.163867648042796,-0.14695550014874809,-33.996619896325036,-0.0002648303763137735,-0.005387545042024852,0.000483414423195878,,,,
4.1,-1.157432767090477,-0.14301804653412079,-33.95567815969958,-0.00016315247426586525,-0.007071555003576501,-0.00016937428583188802,88108.07916713733,33.498725994099985,-99.33789883660202,1165.9346913057057
4.11,-1.1594490079015074,-0.15068445969350514,-33.9225027904596,0.002258632339099083,-0.006419568008071095,-0.00013731682980565267,,,,
4.12,-1.1608073447691645,-0.14693303455460102,-33.88805591619415,0.0005531275991496977,-0.007628895745096055,0.0005337682967682251,88051.8584956156,,,
4.13,-1.1629317309945368,-0.15393009124244714,-33.85487952706077,0.0006136714820664645,-0.005611072828319217,-0.0007192206363384059,,,,
4.14,-1.163990756266596,-0.14876258613055635,-33.817381179562105,0.0003137001296417749,-0.008665056030348771,-0.0001398367650091144,87992.98343724503,,,
4.15,-1.1615849175956996,-0.1470443997483187,-33.77852259478582,0.0006441154908452674,-0.006708121956721393,0.0013283842867422148,,,,
4.16,-1.1637763155939882,-0.1477333009299784,-33.74131682411008,0.0012492057334786816,-0.006619123268422256,-0.0013409660614910443,87937.6348882192,,,
4.17,-1.1658901199955651,-0.14533509549202603,-33.71514093335249,0.0002752589114630626,-0.0073764501530093505,-0.0012612187684291256,,,,
4.18,-1.1666733974468677,-0.15032053535625783,-33.668752980800136,6.932710312313156e-05,-0.00601980887153466,0.0017170772126601892,87882.55352652448,,,
4.19,-1.1658366058037382,-0.1493758706335743,-33.635881057780686,-0.0002250646890472294,-0.005524024048126527,0.0003662919126986489,,,,
4.2,-1.166234720063829,-0.1516885900232808,-33.604956240302016,-0.0010606810181255791,-0.00916871955605522,-0.000920049318408915,87825.57674352502,33.49872129164851,-99.33789774068718,1190.9613970754438
4.21,-1.1740774553570605,-0.14849917098329912,-33.56536602868845,0.0005508065958168546,-0.007953356689757782,0.0008799742139815995,,,,
4.22,-1.1687307988379871,-0.1566725681639027,-33.53767780685221,0.0012166376739160298,-0.007594808297276879,-0.0013068603924504347,87770.52510062006,,,
4.23,-1.1734942507124726,-0.15254549633835715,-33.507079872805065,0.0008909081782520248,-0.004685013389310292,0.00040970971458553345,,,,
4.24,-1.1794216527070969,-0.14808619179853247,-33.46348055028357,0.001830910928730005,-0.007102672987247652,-0.0004891941009982003,87714.12100876847,,,
4.25,-1.1806123835968263,-0.15203690543007686,-33.432830231194885,0.0013203309208582672,-0.009167321707983435,0.0014337324389629312,,,,
4.26,-1.177259030113383,-0.14988921734998134,-33.397334016622615,0.0004245464864096744,-0.0068110281693473974,0.00010726586739697561,87658.92923669923,,,
4.2700000000000005,-1.1822403601740428,-0.14901911032289067,-33.35941111183856,-0.0002290302303286179,-0.007850135238689727,0.0002261005911572541,,,,
4.28,-1.1835397338873626,-0.1483191470680403,-33.32994790273346,0.0010399443702828089,-0.00668470061766432,0.0006793421020850049,87601.22561512202,,,
4.29,-1.1814184158579129,-0.1443332970379714,-33.293337070429224,-0.0010171412197000993,-0.006702912252223234,0.001220612684328931,,,,
4.3,-1.1858795940976694,-0.1474211533170833,-33.26159182912698,0.0007711383292592365,-0.007995968454557427,0.002040663658002533,87547.6228215382,33.49875284658419,-99.33794581099981,1215.624630181893
4.3100000000000005,-1.1840734673800295,-0.15072926746735626,-33.225171048265956,0.0005144850302239426,-0.006493191574620496,0.0005878123095501804,,,,
4.32,-1.191021242254556,-0.15257414845089104,-33.1886826458293,-0.000760262088165618,-0.0066282688161506875,0.0014736709464231348,87491.66878692889,,,
4.33,-1.1862706989518863,-0.15305618032419496,-33.16115978151223,0.0002839149354634905,-0.006418271471360094,0.00015268763257079895,,,,
4.34,-1.189060693306581,-0.1530334604971685,-33.120885664343284,0.0006343974089522529,-0.006624091704096535,-0.0018577748880190205,87436.48974652735,,,
4.3500000000000005,-1.1979381357212888,-0.14975603828095577,-33.09131476399538,0.0032216939127810663,-0.0064026083857632405,-0.0011577848725173871,,,,
4.36,-1.1902534037511996,-0.15223429953818174,-33.05570742679146,0.00023160441451396525,-0.008380999579811293,0.0012824697652628744,87382.62940177722,,,
4.37,-1.1977481242944779,-0.15040595720702377,-33.02597639941792,0.0004619720671116779,-0.008454373660264978,0.0003591790123723708,,,,
4.38,-1.1944926588369469,-0.1501141593105962,-32.99566553590459,-0.0008352150310389857,-0.006585164359395684,-0.00034384020465476957,87326.36215765748,,,
4.39,-1.199655905817307,-0.15143746023596527,-32.95313866678468,-0.0006635225375055277,-0.004659918701900221,-0.00020299036949561299,,,,
4.4,-1.1982320353109346,-0.14313402189538704,-32.9199713837687,0.00014464761332551822,-0.006866416600122897,0.0006097424958963476,87272.51494323954,33.498728177789424,-99.33794228038651,1243.8916490239376
4.41,-1.2036819878078147,-0.15278396858372023,-32.89104722747264,0.0018238364697423133,-0.008474578998874072,-0.0003054254292253924,,,,
4.42,-1.2036209101223234,-0.15156723535415406,-32.847662534876136,0.0005680442308318429,-0.006087823445137621,-0.00124189010328452,87219.20604421101,,,
4.43,-1.2011744678704017,-0.15119990452975277,-32.81754952098562,-0.00020626462359605018,-0.006773602265494524,0.00155368314090274,,,,
4.44,-1.2029701135515052,-0.15245319214482392,-32.78714799432815,-9.109520475489774e-05,-0.007085489824018161,0.0002560065406838703,87162.04138493746,,,
4.45,-1.2078069788021293,-0.14848888678743247,-32.75629664285908,0.00041679960633523216,-0.00688496335113567,0.0007274534714387118,,,,
4.46,-1.209673956953023,-0.14922148384366693,-32.71981775054324,0.0028820872770313043,-0.006804763948245616,-0.0012536880332403375,87110.82155568479,,,
4.47,-1.2129003744965425,-0.1497196289941283,-32.69478935949382,-0.00042923625461232455,-0.00815737338643629,0.0012645244785478233,,,,
4.48,-1.2091027029463421,-0.15479577077616535,-32.66629495957701,0.0007439243192274179,-0.006564788011328728,0.00015437191981647734,87054.8951929594,,,
4.49,-1.2148294090739185,-0.15322349639336857,-32.630391692391406,0.0020360271400919703,-0.00796935013941227,-0.0003248284522623533,,,,
4.5,-1.2185695947791155,-0.15675535548294095,-32.609079326979376,0.00026074177168437633,-0.00737180646283349,-5.9055862014117316e-05,87001.27288429864,33.498721550334466,-99.33792506001976,1263.8232858622678
4.51,-1.2157490638804915,-0.1534525157656171,-32.5777950047793,-3.9122443001168784e-05,-0.008318246472233552,-0.0007403634712318277,,,,
4.5200000000000005,-1.218376576215259,-0.15294319622439137,-32.54820750782573,0.0003820226050575804,-0.0055374316610134885,8.897521389968686e-05,86947.55458889426,,,
4.53,-1.2176464929084612,-0.15221310597274196,-32.5279532648194,-0.0004552505551054728,-0.006225595609331662,-0.000652801104581069,,,,
4.54,-1.2136780624120551,-0.15917584166708082,-32.490305766241086,0.0017308944443605453,-0.006320861910312582,-0.0006151401510639006,86893.23821291783,,,
4.55,-1.2208342112154305,-0.14743713985793983,-32.465127207814405,0.0010094580444466447,-0.006908567819239449,-0.0014561657122619362,,,,
4.5600000000000005,-1.2217779602603718,-0.15214372317894848,-32.432427221340724,-0.00035938582693478295,-0.00740755739492792,0.00022142305553988793,86838.833186768,,,
4.57,-1.2263619120884737,-0.14801296961789587,-32.39736440497116,-0.0009600645002188658,-0.007270108081097073,0.0013265582753388286,,,,
4.58,-1.225375099885256,-0.1506437193551173,-32.37349379903347,0.0023686668637423218,-0.007291322615855259,0.00045648530212859424,86785.49653981463,,,
4.59,-1.2301008652388228,-0.15490502850662877,-32.3355960748457,0.0011711014543482248,-0.008976122156568686,0.0023013727357010885,,,,
4.6000000000000005,-1.2291176541887134,-0.15050819299952264,-32.30612247197191,0.0014403399365428369,-0.006452639834395546,-0.00011323538672812115,86733.60769625579,33.49873544688823,-99.33796592555078,1294.7692353281982
4.61,-1.2259182176485697,-0.15619435473087476,-32.2805754002331,0.000549672951867223,-0.0073229632187358385,0.0006824425129184613,,,,
4.62,-1.2304472901184482,-0.15571535827877384,-32.2465140063606,0.0012657884669798124,-0.007486999551146372,0.0016191995270743228,86678.15362254425,,,
4.63,-1.2335730180896896,-0.15446054065258194,-32.216206714617186,-0.000123404032711302,-0.007761626713348642,0.001040406341959477,,,,
4.64,-1.232247218810936,-0.15639277903314786,-32.18533146314321,0.0012809497621175158,-0.008680103296668087,1.501431017745392e-05,86626.19505271754,,,
4.65,-1.235763135830916,-0.15156652934754689,-32.15528098865983,0.0007787334655590135,-0.006351883028200298,0.001908399188338255,,,,
4.66,-1.237162775543982,-0.16061878795912676,-32.12900747050319,0.0005139482504364318,-0.005836262071358692,-0.001357662590323767,86572.37058944712,,,
4.67,-1.2397804226298528,-0.15629026820274247,-32.09347054714338,-0.0011673540584757622,-0.006349188946306095,-0.000567176770949736,,,,
4.68,-1.2417866084882332,-0.15979214566644692,-32.05901630482193,0.0015599922396884649,-0.0073865335573404635,-0.001830535090850132,86520.90195698803,,,
4.69,-1.241419295653557,-0.157902055527159,-32.030334315301324,-0.0006612705764934108,-0.006788285211319405,3.0667813580668204e-05,,,,
4.7,-1.2324245266044258,-0.15639772125579174,-32.00724472297814,0.000535948303881053,-0.00621237690167309,0.0016920741219780809,86467.62548240891,33.49873650012992,-99.337992934491,1318.6182436947606
4.71,-1.2448369378284567,-0.15757746702959008,-31.978401381680655,0.0010222901590092185,-0.006320274121597397,0.0005932580466835062,,,,
4.72,-1.246966417962097,-0.15552388049939475,-31.95033085082257,0.0008091617761972992,-0.007080852205329997,-0.0009879605082813141,86413.31493219346,,,
4.73,-1.2426676186913976,-0.15290099151830314,-31.93254379497134,0.0017255758396850364,-0.006623939214570747,0.0005102051679541683,,,,
4.74,-1.2472532264416665,-0.15427484542112227,-31.90764359896326,0.0019515201712396808,-0.009015602348764114,-0.002981263341380213,86361.3524743461,,,
4.75,-1.248560845665964,-0.15672371794825965,-31.870538666502174,-0.00027640934813454054,-0.006516710283018019,0.001346859223639298,,,,
4.76,-1.2507070158330404,-0.1553189953367858,-31.83937306646508,-0.0002988555469454401,-0.007048203376495597,0.00017524410819818535,86309.30268903424,,,
4.7700000000000005,-1.2513548900078062,-0.1501202372280619,-31.806870057503016,0.0005434925221536705,-0.007432075843560094,0.0005975307938074155,,,,
4.78,-1.2531615701831686,-0.15962181119034416,-31.780645807623667,-0.0003193198999245667,-0.006114547705040354,-0.00045634085215948535,86257.44022376134,,,
4.79,-1.249571387203425,-0.15526716792104747,-31.744693669296943,-0.0005520098895464445,-0.00804602515480988,0.0007108754463484795,,,,
4.8,-1.2559958452018776,-0.1598377406645637,-31.71951960532651,0.0008769914278683819,-0.008013476995486896,0.000766857813060387,86205.201013831,33.49878621231928,-99.33798338400396,1342.8422925200553
4.8100000000000005,-1.2589659645992837,-0.15650314033305207,-31.695443649186927,-0.0006287576070253382,-0.007321978247156114,0.00011248163497785339,,,,
4.82,-1.2570513463456507,-0.16044138258388965,-31.663555679588004,7.071224975184628e-06,-0.0067341120330947505,0.000406742338596464,86153.07810127025,,,
4.83,-1.2555059953357741,-0.15879080397472123,-31.638786904999048,0.0012153140299867977,-0.008249265732818034,-4.206230452649075e-05,,,,
4.84,-1.2617600847191563,-0.1600703139715105,-31.607907610251896,0.001236955905817792,-0.006432795562790901,0.0005056720652838767,86101.09265072872,,,
4.8500000000000005,-1.2609078405467613,-0.15656222086658453,-31.57846828387348,0.0017408556480313546,-0.00830543280767259,0.0009643656299571646,,,,
4.86,-1.2658780222189474,-0.15369257512227688,-31.54554431133538,0.0003263373017997234,-0.007968084264374342,-0.0016446493821172272,86048.40713566911,,,
4.87,-1.2664892870887574,-0.1559267048339368,-31.517655964325748,-0.0005375889034360572,-0.007328190222996869,-0.001854272304467372,,,,
4.88,-1.264616489932297,-0.1619821091616974,-31.493956128828806,0.00022921447548280031,-0.008579103136194836,0.0026696019957101404,85996.54610606587,,,
4.89,-1.268270295026267,-0.15846689059009686,-31.463958566721892,0.0015624178006042847,-0.006295758828672219,-0.0005329551652291426,,,,
4.9,-1.266936625584263,-0.1607039666706308,-31.4351117633557,0.0017000730063821941,-0.009860646976129544,-0.0005284989864716925,85945.4972312831,33.49877436719959,-99.33798633641905,1367.0949252511648
4.91,-1.2696531825736768,-0.15219606833548652,-31.41232546107451,0.0014420596911369882,-0.006813070765847143,-0.0010385220803761583,,,,
4.92,-1.272050500616359,-0.15595312240659068,-31.388613309089845,0.0019821778791134738,-0.007021344432459925,0.0011258669524022943,85894.80845928671,,,
4.93,-1.2745612271745888,-0.15883548017264632,-31.360042886249914,0.0002700182803125113,-0.006268166163942723,0.0003257078252293177,,,,
4.94,-1.2806560828884967,-0.15494977941586802,-31.344881044833894,0.0013537738151024217,-0.006593505329677542,0.000710275232623186,85842.72810120421,,,
4.95,-1.272012705756518,-0.15326538241557838,-31.310707151902026,0.0010447852257184497,-0.005890931734862823,0.0007873579380015315,,,,
4.96,-1.2809269542416502,-0.1569967640483683,-31.286892999408412,0.0007569776415793808,-0.007584985229140592,0.0004360508244189345,85791.87980684395,,,
4.97,-1.2819539682320473,-0.15836854651765384,-31.258492075454722,0.002013333084894921,-0.006989192883852679,-0.0005433597246609689,,,,
4.98,-1.2823016537419982,-0.1619518479046329,-31.227141517301902,0.0009939944202741575,-0.007580920383960859,0.0003439317863319417,85740.31785975039,,,
4.99,-1.2812718347237784,-0.16407407593255877,-31.199790479165465,0.001924783189984577,-0.00838301518699976,0.0013217556634708264,,,,
5.0,-1.2884232891943037,-0.1536870398580023,-31.168271880546673,-0.0015171850294651138,-0.008149004214235547,0.000798526897058722,85687.85199231147,33.49869836624624,-99.33800117392137,1392.7363116230415
5.01,-1.285507753889356,-0.16027153497374638,-31.147151877411172,0.0010320254364680676,-0.006649079746866284,-0.0011189243072620824,,,,
5.0200000000000005,-1.288844071840329,-0.1632624581598259,-31.11420166627881,0.0010074006236874067,-0.006223699023476225,0.0004753880805426752,85637.34499537169,,,
5.03,-1.2919904620594063,-0.1565620637228985,-31.084184240437533,-0.0003269966720821652,-0.006980562742772743,0.0010614221870607367,,,,
5.04,-1.2924442106476306,-0.15823802748182847,-31.062245032458584,-0.001794680531046375,-0.006935075969440729,0.0006856967354598334,85586.7035456235,,,
5.05,-1.2912062097752743,-0.1551629606725736,-31.034998287723884,0.0014915578353088422,-0.008260460002184979,0.001300417997182961,,,,
5.0600000000000005,-1.2978824691216015,-0.15369926329980363,-31.01486147774092,0.00026492052422044654,-0.0071352744178501395,-8.397424054645575e-05,85536.41411342639,,,
5.07,-1.3024490091984513,-0.16187037304027788,-30.98657244173738,0.0008829214067658668,-0.007056310536273461,0.00020047292323345335,,,,
5.08,-1.2981166942365823,-0.15725261023094267,-30.968006151803216,0.000835130870131553,-0.00593419822022471,0.00044923061973104215,85484.41953878378,,,
5.09,-1.2945550638118524,-0.15862210894345008,-30.94114430262781,-8.050771752533066e-05,-0.0070861131834862095,-0.0005868842657121024,,,,
5.1000000000000005,-1.2943716157896479,-0.16225779899244216,-30.91586283494098,0.0011523856673439597,-0.006974334802280242,-0.0011358063532187713,85434.61693726665,33.49873638406289,-99.33803310452585,1410.0951252939612
5.11,-1.2971679211813185,-0.1510218810848757,-30.88324522157298,0.002373095191479228,-0.007035671690290484,-0.0005585344298224432,,,,
5.12,-1.3172610858963372,-0.15590786194756562,-30.859583053966098,0.00026068558271826993,-0.008035561315156908,0.0011075790394563176,85385.03651976092,,,
5.13,-1.3331891181013604,-0.17447277248558768,-30.831369925150458,0.0016939231612434938,-0.007188021327340497,-0.00031382366376449516,,,,
5.14,-1.3456808023328959,-0.17147913327689773,-30.803716064669114,-0.0005674096718276673,-0.006883780877607094,0.00045596467739793007,85335.93969200876,,,
5.15,-1.3568805245162512,-0.17656253927992338,-30.777492700846896,0.0006035756771554944,-0.0062643750299860735,-0.001210942202125293,,,,
5.16,-1.3577520914787427,-0.180115869144882,-30.748365218573213,-0.0005318719689212078,-0.006552009793855125,-0.0012350706404797246,85285.20420312235,,,
5.17,-1.3587195748575702,-0.1805016334904044,-30.720114436886664,0.0013539807074837685,-0.004898063064415511,0.0005117460099281232,,,,
5.18,-1.353439778208883,-0.17393315556539005,-30.706068483866407,0.0001975397031537356,-0.004700917312931693,-0.00038498211307399284,85234.28887503683,,,
5.19,-1.3518512305549193,-0.17662334723242482,-30.681437692322223,-1.4373946131055588e-05,-0.002838990601481203,0.0017718506846375979,,,,
5.2,-1.3444629687694247,-0.17133659840698792,-30.64077795679474,0.0010283424173504968,-0.00454114801295035,-0.0012306512266378412,85185.04804803248,33.49871252234895,-99.33802617882564,1442.097472955163
5.21,-1.3397000128219296,-0.1684294269199359,-30.625818879869755,-0.001415191902512792,-0.0034204222732762946,0.002121113613391546,,,,
5.22,-1.327110160215066,-0.16032152130594807,-30.60385718476277,-0.00039914493027993743,-0.0024848147383512527,-0.0004947351486438177,85134.18852124,,,
5.23,-1.320722412045155,-0.15765017563308562,-30.581400314918216,0.001122564021384716,-0.0022677037808369284,0.0006079205674764921,,,,
5.24,-1.3141043220610242,-0.15800296114795442,-30.562292088403446,0.002234086790402425,-0.003956017640799764,-0.0026839233233885767,85086.59276338902,,,
5.25,-1.3158546173146988,-0.15560866332408435,-30.53518455263104,0.0018689226322905826,-0.002574121762872797,0.00038153497645792043,,,,
5.26,-1.3094459293405762,-0.15374956635992174,-30.513627426266535,0.0015005983684122492,-0.002945584630640444,-0.0005772409787710447,85037.19131173614,,,
5.2700000000000005,-1.304435073868108,-0.15092092164805912,-30.49022471328237,-0.0013078778877858724,-0.003533107463479928,1.4382446070621501e-05,,,,
5.28,-1.3091972977714545,-0.1565858398726591,-30.463100919809925,0.00026338010289727654,-0.004590123883798202,-0.0006441797230506895,84985.33350744698,,,
5.29,-1.3142160800462876,-0.15573255906483705,-30.42822715228956,0.0006774745074387693,-0.0040440520981043886,0.0002889347467475292,,,,
5.3,-1.3076192720522875,-0.15340424015265836,-30.407476336082542,3.116824909578543e-05,-0.0046780830595933125,-0.0009152891910027144,84937.99323830065,33.498745107197195,-99.33790466681101,1464.695613305977
5.3100000000000005,-1.3159278130732583,-0.15883757003902185,-30.38364639987392,-0.00025590903322763236,-0.006187328054438743,0.0007207692266592811,,,,
5.32,-1.3233852418975733,-0.1624915858345324,-30.356052445346617,-0.00042007209543147214,-0.005284919175070012,-0.00027542096407683373,84887.9409348494,,,
5.33,-1.3317741195115766,-0.15751318908332404,-30.33010715809932,0.0007897719597815924,-0.006417977976804197,0.0008592055696589637,,,,
5.34,-1.337210472556488,-0.16653101003385337,-30.305890699960518,7.601269291710426e-05,-0.005115064258236518,0.001175649793648437,84837.95438030585,,,
5.3500000000000005,-1.3414241255417478,-0.16257620353907412,-30.276464203651116,0.0004087947691301161,-0.005341409583035089,0.000823059886666234,,,,
5.36,-1.3461335215237973,-0.16633720554173817,-30.253460688026813,0.0004934408530446929,-0.005846278887081019,-0.0009372712428971367,84790.08694485482,,,
5.37,-1.3467851406911393,-0.16853670292244344,-30.235034394403975,0.0013626467580289349,-0.005445377374196448,-0.0015711559285894981,,,,
5.38,-1.3493954547712461,-0.16477357059875614,-30.213033500540618,0.0005177034883581448,-0.006347512674111759,0.0006201532917015258,84739.95272416159,,,
5.39,-1.3538723591250637,-0.16221246685660035,-30.19172349870319,0.0011037566825677647,-0.004645289713885795,0.0011936793795903787,,,,
5.4,-1.3501493775742694,-0.1624200400066508,-30.173184813619812,0.00021583397209554525,-0.0034638817541662714,0.0008320678456929377,84691.79247332111,33.49875147348482,-99.33801238874162,1493.2075770489348
5.41,-1.3508535718383676,-0.17521459504249254,-30.14149911870705,0.0005412062558608436,-0.005181131224250963,0.0013518903945581538,,,,
5.42,-1.346988126514066,-0.1725084767064164,-30.125176303829328,-0.0013690665247051786,-0.0031669579233294656,0.0009627264671673201,84643.91445558738,,,
5.43,-1.3502738166654167,-0.1660660374423256,-30.091415205832984,0.0011136999305725393,-0.004567255665402717,-0.0014764402921264705,,,,
5.44,-1.3434168722075988,-0.16172007110177897,-30.0661977118158,-0.00020574649419386284,-0.004850557820432092,-0.00023725327114671168,84594.54041722504,,,
5.45,-1.3448064018289638,-0.163798038685855,-30.048836795287716,0.0002069023820363353,-0.0034394500411935825,0.00035884540276920443,,,,
5.46,-1.343674940705918,-0.16217304421219483,-30.018151379613734,0.0018010918030408262,-0.004049040625911006,0.00036205761923925297,84544.46786168736,,,
5.47,-1.343592164620866,-0.15984328329235364,-29.99265140333298,0.0007049670002496683,-0.0027409634378528273,-0.001867658588546231,,,,
5.48,-1.3432102827986865,-0.16272643523082467,-29.97089106610885,-0.0011965575770765094,-0.006933226399569297,0.00026230924096165104,84497.09859513122,,,
5.49,-1.3377836095979183,-0.1638699854484287,-29.94351012072705,0.0009058046214164041,-0.005649227570415741,0.00047539426805251787,,,,
5.5,-1.3415806648206015,-0.16421863303573322,-29.927307111499005,5.916790301431778e-05,-0.005719872388709755,0.0020422688344486416,84447.82058224552,33.49876938543257,-99.33794005187241,1504.2050425516618
5.51,-1.3440112049854631,-0.16351210201527708,-29.905271428767215,0.001769539060294656,-0.004968419478644857,0.0002457402999133385,,,,
5.5200000000000005,-1.3457642800857461,-0.16058817968944136,-29.8770310797488,0.002372904564769695,-0.005419121052231412,-0.0017321996216686246,84400.82446142955,,,
5.53,-1.350239402296842,-0.15837541069378644,-29.8570672435975,-4.90333402499868e-05,-0.005417906346782096,-0.000234730382826439,,,,
5.54,-1.3519079596480812,-0.16547849680481533,-29.83601719763242,0.0012173751359388744,-0.006431125483132483,0.0024403543401676307,84353.0323784906,,,
5.55,-1.3539455616574272,-0.16267800906114632,-29.80734286922098,0.0007332875602916127,-0.004635456744825272,-0.0013590480470251855,,,,
5.5600000000000005,-1.3620765376145072,-0.1688394617646433,-29.788815005387768,-0.0003404672354454083,-0.004406430589907244,0.0016266174230675614,84305.05753825318,,,
5.57,-1.3579725857661666,-0.16741497573955533,-29.76754603929112,-0.0013099652603237762,-0.00404577550601868,-0.0010355383266926336,,,,
5.58,-1.3598011979393947,-0.16808996524538194,-29.743921392902433,0.001680688161659104,-0.006075529058981967,0.0011196160029781183,84257.11535303251,,,
5.59,-1.3631336238921141,-0.17200532508986419,-29.715775977203528,0.0003259235542671883,-0.00401800331861004,0.0005394017283739013,,,,
5.6000000000000005,-1.3642184463500586,-0.16915821413328327,-29.6900099748768,0.0026914541789615385,-0.004211069136020572,0.0012914429969101324,84208.89023171639,33.49871470741208,-99.33808066510672,1544.1704460686592
5.61,-1.3663381733834004,-0.17054527100940076,-29.679721889509914,0.0013291879055883345,-0.004972045169571199,-0.00030910328977012854,,,,
5.62,-1.368115193913103,-0.16902951409394273,-29.650991517234008,-5.105435493318639e-06,-0.005944615504085236,0.0007627677348690947,84161.08502769603,,,
5.63,-1.3609805010571816,-0.1671626207942527,-29.638289189814788,0.0013835304684604187,-0.003144162870604544,0.00120701605305204,,,,
5.64,-1.3698270600058347,-0.16875913079299357,-29.61143506885876,4.9725168683660114e-05,-0.004813899459222295,0.000585645192597986,84114.47538016737,,,
5.65,-1.3623078554352475,-0.16584204144196701,-29.58994293114692,-0.0016783908157797277,-0.005338548525615459,-0.0008512392292396222,,,,
5.66,-1.3679877774812639,-0.1667224817357201,-29.572520129483475,0.0010818572737369878,-0.004578994746073595,-0.001113542947085405,84066.3318180544,,,
5.67,-1.3698365029255306,-0.16606976467181833,-29.54317512345958,-0.0003018479530375232,-0.003100973263031446,0.0008171668134420057,,,,
5.68,-1.3677901646727202,-0.1620769484967431,-29.518411268237482,0.0007712390090877902,-0.005408395163120702,-0.00015255957340823173,84019.49548835937,,,
5.69,-1.365868647043769,-0.1647980307625597,-29.500838173256295,0.0013758070935866056,-0.004600896981102059,-0.0003758485841682555,,,,
5.7,-1.3711021791453295,-0.16826115555535323,-29.474393961062646,0.0009372773249995366,-0.0037219760956513294,0.0002480789956621877,83970.91527716532,33.49882096261363,-99.33803911683928,1563.0028268088195
5.71,-1.3690837147049888,-0.166099838995126,-29.450841483739136,-0.0015506233691203338,-0.005826207605115993,0.0006627309813986729,,,,
5.72,-1.3678701418642294,-0.16364293760416174,-29.428440721215146,0.00014833606333240513,-0.0048269699771223825,-0.00024635122174742615,83924.27977628514,,,
5.73,-1.3686901125755688,-0.16219681699896868,-29.397698095304428,0.0022975225847969754,-0.005038127425772649,0.0015558536131646645,,,,
5.74,-1.3780139485182912,-0.16548671152025557,-29.376508435145343,0.00026309465761088584,-0.005610673216763537,0.001296557485320301,83877.04889030315,,,
5.75,-1.3735809290677834,-0.1606464364822117,-29.357201611507417,0.002087610922106762,-0.007095057335972308,-0.0005632701346120959,,,,
5.76,-1.3811158737230478,-0.16602520254768272,-29.340759779736718,-0.00027665122514389576,-0.005296983776546994,0.0007506748928475175,83830.65719032736,,,
5.7700000000000005,-1.377839116475687,-0.16672033089335378,-29.319841251241378,-4.079126765950327e-05,-0.006329816063760209,0.0003415577631042488,,,,
5.78,-1.3776879209248953,-0.16504395817626386,-29.30047709728508,0.0002603905495838845,-0.004541544125508628,-0.00019583693693850208,83783.68833309438,,,
5.79,-1.3862670788976756,-0.16340850685214622,-29.28232686054148,0.0001566647080898052,-0.007328797265757594,-0.0008257760949014448,,,,
5.8,-1.3799063195297878,-0.17152882141495007,-29.262427775997505,0.0006594560368369084,-0.004849352144263518,-0.00018371707175405364,83737.05527827014,33.49878581153449,-99.33808296524268,1579.393543442635
5.8100000000000005,-1.3792725467153637,-0.16457220685176793,-29.24401646826431,0.00048786594741764464,-0.006576382217289055,-0.0016272867270287162,,,,
5.82,-1.3822683230301613,-0.16622529676036443,-29.215105466462674,0.001289189971865311,-0.004496953802113937,0.0017220720239036452,83689.67475484374,,,
5.83,-1.3895809293060877,-0.17485579146212224,-29.193917365851238,-0.00013284317083651052,-0.004768281297523136,-0.0010021310722398051,,,,
5.84,-1.379965330103432,-0.1633160784408891,-29.168310248210258,0.00023836119674702961,-0.004093642301803799,0.0005536875741249539,83644.3555923802,,,
5.8500000000000005,-1.387087462351544,-0.16933548742565338,-29.154507685580572,0.00038354825586891427,-0.0045619638504438,-0.0007705630574767315,,,,
5.86,-1.3856861199014547,-0.16966012754402454,-29.129793542678424,-0.0007693215852031752,-0.00572273455958084,0.0006077022568143836,83598.04174124307,,,
5.87,-1.3909043764811482,-0.16804152891143853,-29.107504567996003,0.00033178998834377393,-0.006512002351463267,-0.000396169818667196,,,,
5.88,-1.3886312826652758,-0.17028913367968102,-29.093367556003415,-0.0003426666013059787,-0.0027582903232473933,0.002735455231012931,83550.90273334188,,,
5.89,-1.3879622195090957,-0.16941501777962753,-29.067474325579095,0.001252159840256631,-0.003245038697708229,-0.00015436474995310427,,,,
5.9,-1.3925992942900633,-0.16876511072942169,-29.056170262039206,0.0006133909330858995,-0.004398038020016471,-0.0005093857891403208,83505.32957843461,33.49881434263052,-99.33804043198502,1599.8617344343456
5.91,-1.393191191692642,-0.16475549385792918,-29.037591313733945,0.0008330905447484016,-0.005315159185478626,0.0008721906799869282,,,,
5.92,-1.391546918568415,-0.16429406713114478,-29.01040502948586,0.0005235858332576539,-0.007702369442479477,0.0012693160845380408,83457.86756491777,,,
5.93,-1.391418087001482,-0.16586730089970367,-28.99204287269069,0.0002625351360546643,-0.006858758453218133,-0.0003813559059396013,,,,
5.94,-1.395400365211193,-0.16753607815369723,-28.960749236371367,-0.0001418039748780917,-0.006395092339224239,0.0005924328242654717,83412.35384651477,,,
5.95,-1.4022006372088014,-0.16866607308523374,-28.941262424259936,0.002021875133138025,-0.006004719570512897,-0.000914134973000454,,,,
5.96,-1.3973128599895248,-0.1706920077982692,-28.926952162129687,0.001243562415310913,-0.005792862193927696,0.0004133122095619602,83367.12496723713,,,
5.97,-1.3960569084399963,-0.16874504348567407,-28.897653665855408,0.0007975921347303348,-0.004695623728302066,0.0005202315977607745,,,,
5.98,-1.4021993668136667,-0.1680963469706071,-28.88193394514623,-0.0013107617054377027,-0.006461706924862856,0.0001783334888511445,83320.08478884287,,,
5.99,-1.4006826782591042,-0.16811529482441123,-28.86868268868293,-0.0007107037220548082,-0.006328785485714302,-0.00015223525280744728,,,,
6.0,-1.4026318743468904,-0.16645604298316125,-28.849759352791107,0.001821660918710383,-0.0048804239004933535,8.702905552290818e-05,83275.55599058044,33.49876082068478,-99.3380256459926,1622.3497514847859
6.01,-1.3982665190537757,-0.16843666427808557,-28.83295693079405,0.0008168722886803245,-0.0057501136535840006,0.0013483982789305995,,,,
6.0200000000000005,-1.404488759929657,-0.17149204968917925,-28.80352303562014,-0.0016185366666190016,-0.0055980207126262865,0.0005010613481295045,83229.59049588877,,,
6.03,-1.4039317904362614,-0.16677534250476228,-28.78054897508315,8.332881699323232e-05,-0.006369064226677124,0.0004289765986725707,,,,
6.04,-1.408801579077141,-0.16776087545286597,-28.76343895714042,0.0013456053830948067,-0.005116643047211113,-0.0003621202387776052,83183.19815457729,,,
6.05,-1.4084931842205692,-0.17052090622616445,-28.739847157047414,0.0031213227519063867,-0.004492999035083127,-0.0020128754151325745,,,,
6.0600000000000005,-1.4094635536303344,-0.1740775335637945,-28.729192767745953,0.0013764622951802428,-0.003050902405753622,-0.0006156360264788995,83138.23393938715,,,
6.07,-1.4054026914062252,-0.17051197391853226,-28.70287897723748,-0.0013614359425150914,-0.0053629461384436606,0.0008885993162850257,,,,
6.08,-1.4109737409532583,-0.16983120429402937,-28.688567031970834,0.003668647998168605,-0.004503349702328652,-0.00012102265944889873,83091.96856411865,,,
6.09,-1.412163197784646,-0.16519672241053765,-28.667546140714993,-0.001466478548824095,-0.006548862627491152,-0.0017125911932070854,,,,
6.1000000000000005,-1.4137523389095406,-0.16410172773296236,-28.65721673143509,-0.00014498956445908537,-0.004649157194264444,-0.0004716711695874181,83046.77787842542,33.49869626462671,-99.33810590647454,1645.8170756571012
6.11,-1.415166488461401,-0.17332421599221284,-28.63632681425736,-0.001246731900001896,-0.006423970722432488,0.00039648236130476153,,,,
6.12,-1.4159070876037576,-0.17081040621699164,-28.613331820950766,0.0005826108403068831,-0.004409140419743902,-0.0022311929691528442,83002.35339387965,,,
6.13,-1.4129453185579404,-0.1736170477244396,-28.59573806344909,0.001104720992821232,-0.004953398387927467,-0.0006661106975544251,,,,
6.140000000000001,-1.4161239357150686,-0.16997454739020662,-28.56903136193918,0.000887715008060483,-0.004613607715530867,0.0001514609640165486,82956.62318140607,,,
6.15,-1.4189202805093346,-0.1707238924889807,-28.545096769411252,0.0004573558888563956,-0.005121303938777615,0.0014644233118638033,,,,
6.16,-1.4162389856304707,-0.16987440723970176,-28.529167481281693,0.0014956382633144515,-0.005329232076767529,0.0008086788887835614,82911.47441364026,,,
6.17,-1.4151534984322962,-0.1725987462382789,-28.512802458638433,-0.0017130129490085804,-0.002350461735644747,-0.0003888197197478596,,,,
6.18,-1.4246935640038458,-0.17436470044797994,-28.494272759614976,-0.00022156443579191606,-0.0037563119078882013,0.0001384325383343171,82868.3009672555,,,
6.19,-1.419265107402826,-0.17041663961142678,-28.47174011567058,0.002308792446125651,-0.007461260864913993,0.0011146509191231604,,,,
6.2,-1.4171697940472827,-0.17277524183731555,-28.45985768943404,-0.0005663477047580895,-0.004624206439524431,0.0002803313704926275,82820.53317513206,33.49876857579672,-99.3380586059105,1663.8346719011292
6.21,-1.4266933318291635,-0.16875650618797752,-28.43364507666188,0.0025436792516116023,-0.005604301343906359,0.0001926975426017099,,,,
6.22,-1.423101934147766,-0.17169951907394557,-28.41252205092437,0.0030407102513177755,-0.004351964119628836,-0.002235807719317343,82778.40613241789,,,
6.23,-1.4206231667353622,-0.17133937947633043,-28.399929305297984,0.002146715722296979,-0.004321694969977682,0.00039588928067808995,,,,
6.24,-1.4265021857286637,-0.17320769460149166,-28.372007673127165,0.0016573754663128585,-0.006108247365298161,0.0008624675465478918,82732.2295902796,,,
6.25,-1.4286947525984977,-0.16884109710398684,-28.360240085937985,-0.0006978311411713441,-0.005009580339958808,8.843156528239231e-05,,,,
6.26,-1.42649050744855,-0.17579013851412992,-28.33287881196482,-0.0005200669155565882,-0.006785449898652029,-0.002829239934535532,82686.9060119344,,,
6.2700000000000005,-1.4304679443345014,-0.17438407295114536,-28.320029294041326,0.0015191167300417116,-0.004658853044573657,-0.0009724463966784846,,,,
6.28,-1.4338787657993997,-0.17584731384135022,-28.299492522452415,-0.0005499179924649237,-0.005558414976982803,0.0005217053700175992,82643.79983461654,,,
6.29,-1.4264947344358527,-0.17239323848953925,-28.2901278032322,0.0002860989595649052,-0.0060787751043161024,0.0023977329168239116,,,,
6.3,-1.434012725414962,-0.17134425896768724,-28.267064987138053,0.0010632202813304595,-0.0063798856393082375,0.000769413966102736,82599.2464818642,33.498811560102375,-99.3380383312867,1690.2675108580015
6.3100000000000005,-1.4403499990357733,-0.1739397945779588,-28.253242561305488,0.0009501793597311873,-0.00481834469211222,-0.000949327802777931,,,,
6.32,-1.4347976189360625,-0.16557336643085507,-28.239528712590886,0.0009774470032051896,-0.007602395277327808,-0.00037718493037271255,82555.48951721081,,,
6.33,-1.4323241158118871,-0.1708916122700984,-28.209012521862817,0.00029351604656646,-0.006755895438453154,0.0004985785110097759,,,,
6.34,-1.4381885310340192,-0.16998578297183792,-28.1957756564641,-0.0006686016072021999,-0.005095247455683408,-0.0007690643483345223,82510.52948459951,,,
6.3500000000000005,-1.4393315608942752,-0.17419151984716796,-28.167604046371387,-4.68626708951045e-05,-0.007571600332292899,0.00025181016513828726,,,,
6.36,-1.4394305927072513,-0.17459805592657288,-28.152023801914826,0.0015554768466578385,-0.006011327746042464,-0.0014345999357767906,82467.29540419404,,,
6.37,-1.4451117985200175,-0.17031040865980965,-28.13115204995949,0.0009914120428671691,-0.006090668604225938,-2.709046663513249e-05,,,,
6.38,-1.446910656096377,-0.1719339576849677,-28.117505659384143,0.000486504657440451,-0.006935420697143895,-0.0006377620767682314,82423.14410097776,,,
6.390000000000001,-1.438466619140471,-0.1728267605800667,-28.103851885268686,-9.025444748819397e-05,-0.005383799039666703,0.0006857431826564542,,,,
6.4,-1.4410078659287495,-0.1755328372312881,-28.083444298639638,0.0008497938797490173,-0.0045379869665278134,0.0007620766476375582,82378.38474605238,33.49876476752535,-99.33809099786103,1717.9527549113702
6.41,-1.4484373412509006,-0.1725545115945464,-28.0696115437523,0.0007793397794457087,-0.00552588724791223,-0.0005367364737119604,,,,
6.42,-1.4437672329345475,-0.17555293944021377,-28.047925970463606,0.0017425956453716173,-0.00571312645958908,0.0001442504460119452,82335.81276722721,,,
6.43,-1.446785017964505,-0.17529339623081366,-28.02894056570687,0.000738870581609592,-0.0037327854123427916,0.0012211700913484275,,,,
6.44,-1.448583186431841,-0.17180374619998892,-28.00356402696571,0.002132759615507145,-0.005325944844901478,0.0006090036629302264,82292.68400843935,,,
6.45,-1.444081470237519,-0.17548569632516503,-27.98877231106667,3.092405462138748e-05,-0.005511532619475805,-0.0004517480329150289,,,,
6.46,-1.4481333992426915,-0.17326894835982917,-27.965298915162023,0.0013723196423636496,-0.007424556914125812,9.458258177378398e-05,82248.26268094475,,,
6.47,-1.4513202855115956,-0.1758720213700899,-27.95236241540085,-0.0008816611451276627,-0.006749358606741243,0.0006722130076068219,,,,
6.48,-1.4512212550485857,-0.172119195799165,-27.930391348077826,0.002629753683495482,-0.004923206461286205,-0.00019692463604375907,82203.60967705652,,,
6.49,-1.4514005741582703,-0.171163318401456,-27.913473213703153,0.000696167842742565,-0.003982615594766308,-0.00038126554674808945,,,,
6.5,-1.4549965568511096,-0.17458580849384547,-27.903256910723865,-0.0001287909531374875,-0.007241529816520984,0.00045549009136767186,82160.66675324444,33.49880481752671,-99.33807032218273,1738.095029093835
6.51,-1.4600413256838833,-0.17658298614363793,-27.886189337480374,-0.001394411546538563,-0.005182402878005433,-0.0009591762752166655,,,,
6.5200000000000005,-1.4574753158633846,-0.17651455604816507,-27.87429935756264,0.0007388617627534829,-0.005098075766261359,0.00047261223229736756,82117.97615802071,,,
6.53,-1.4574019805061844,-0.17655171275657028,-27.848650874634128,-0.0005888038539020552,-0.005640746943239647,-0.0010217560576762047,,,,
6.54,-1.4574622471918648,-0.17372561458805172,-27.828258168299016,0.0015129921226487725,-0.006650325392455279,-0.0010530281478116272,82073.9225410738,,,
6.55,-1.4586026710516047,-0.17834458149868185,-27.809253919642575,-0.00026075583633229085,-0.0051375346902231295,0.0005841624155795991,,,,
6.5600000000000005,-1.459114308769489,-0.17656150852961727,-27.789265326577837,0.0015089058131966954,-0.0034368759489210145,0.0013097714183144943,82031.15339579711,,,
6.57,-1.4608422422023246,-0.17075708528912098,-27.771173002423126,0.0030066300341909493,-0.006683686703940074,0.0010982122558735865,,,,
6.58,-1.461780485288515,-0.17287736715124416,-27.756235101,0.0005242150075078943,-0.004184096172560663,-0.0007159342936219864,81988.97990869638,,,
6.59,-1.461404461043912,-0.17873049782114567,-27.740171943976513,0.0018824039179485982,-0.005751137640033161,0.0016081619376587261,,,,
6.6000000000000005,-1.4652784806088188,-0.17558055568512793,-27.720943874506023,0.0006618162027478304,-0.005755389623314692,0.0022865035740495822,81945.6822589707,33.49877215410263,-99.33810736504581,1760.036998470427
6.61,-1.4676063749234214,-0.17743856337335903,-27.708709247060952,3.249249193835839e-05,-0.004915030278995997,-0.0001426837312652694,,,,
6.62,-1.4659187258291548,-0.17514219661582625,-27.688201076164574,0.0016422335900639976,-0.005060692040620065,0.0019175131098955432,81903.09084819564,,,
6.63,-1.470084801366835,-0.17181220559030458,-27.67010353418761,-0.0008508959458414943,-0.004832901368227916,0.0004625429771763705,,,,
6.640000000000001,-1.470753751855762,-0.17208189303219773,-27.65458907555814,-0.0008538771449123083,-0.005728626523703694,2.7163940834506306e-06,81860.27299784118,,,
6.65,-1.4724081668367175,-0.17279171732302143,-27.636634009973417,0.0009660518674407974,-0.005361979992989322,0.000100619367276633,,,,
6.66,-1.475180771937748,-0.17873228388897164,-27.614140096585235,0.0004532316259640914,-0.005719851036768237,0.001813629210993147,81817.26596224494,,,
6.67,-1.4746809918007258,-0.16992344050577987,-27.59887484463782,-0.0003495457991661569,-0.004803497809368067,-0.0002382673877493924,,,,
6.68,-1.4775066086663857,-0.1750487249801669,-27.57899356951266,0.0006954349322492844,-0.005945132141833378,0.00011341285735924006,81774.0062386304,,,
6.69,-1.472638906400557,-0.17601337565110797,-27.566617657683956,0.0010882593486097902,-0.004616940251340846,-0.001588608665136964,,,,
6.7,-1.4745752056453758,-0.17512171308089788,-27.55095723709409,0.0012959270993402193,-0.006295934622427844,-0.0009953561731295836,81731.64867274159,33.498773474475676,-99.33813385147226,1768.5397050192832
6.71,-1.4799223458288893,-0.17853406038801392,-27.53215914199316,0.0010310125150176047,-0.00528448218736431,0.00022839207729805238,,,,
6.72,-1.47687023178014,-0.1789399398108847,-27.52107859478734,0.0012700669690873597,-0.0067726791215762736,0.0009822108115377527,81688.76457824642,,,
6.73,-1.481140049882932,-0.1771524219833717,-27.497393055453543,0.001370852628353957,-0.006877597969642949,0.0010335331309408227,,,,
6.74,-1.479027026596497,-0.17746849318540348,-27.478812438479096,0.00014332777165555933,-0.005513023128242272,0.0010890114974784198,81648.77311182045,,,
6.75,-1.4767986438686596,-0.17898310949580004,-27.463811679542573,0.0021526916622429905,-0.0036706189933989938,0.0004668363261906943,,,,
6.76,-1.48364571631856,-0.17431086063998658,-27.44515864979556,-1.9693882071002708e-05,-0.005963526384697908,0.0001346530402597718,81604.4952362174,,,
6.7700000000000005,-1.4867724335919315,-0.18337913512801174,-27.422769852527306,0.0031250167862144243,-0.0060236948072379904,-0.0002075130448926468,,,,
6.78,-1.4876366128922511,-0.17755382848630086,-27.40884597728594,0.0010781520001093016,-0.005210443422321301,9.284898573798985e-05,81562.05159515185,,,
6.79,-1.4906713391973239,-0.17251718933882348,-27.400776706333296,-0.00011910459921992745,-0.006307133870462104,0.0006259126736830507,,,,
6.8,-1.487866113629493,-0.17781900930216032,-27.385544633504768,0.0014023557284570363,-0.004924959211705422,0.0007544332306024279,81520.16859580338,33.4987741395357,-99.33815726847655,1800.5834139864326
6.8100000000000005,-1.4850741975298876,-0.17531508635169504,-27.362054482711393,0.0006736848430024295,-0.005781818949142127,-0.0011434409040755329,,,,
6.82,-1.4902627949958025,-0.18430259774948818,-27.352494573140675,0.0003073410179085759,-0.006055434689364872,-0.000340065902340673,81478.44904528513,,,
6.83,-1.4934612740335016,-0.17775670874566502,-27.329319537054577,-0.0008098310240635947,-0.00439429968093805,0.000737243518354508,,,,
6.84,-1.4937184255135953,-0.17404634910273417,-27.31463131236116,0.0002507667251961077,-0.004303871960627383,-0.001139315550954388,81437.04510767134,,,
6.8500000000000005,-1.4993466588095774,-0.17910469643659802,-27.293664356366943,0.001181343444223167,-0.005300175371371769,0.0002885152458066046,,,,
6.86,-1.4941201693567276,-0.1794327298916685,-27.277840523402507,0.00027750524583265186,-0.006809892515442475,0.0025833774463973804,81394.37969924656,,,
6.87,-1.4915977723565188,-0.18248527347335897,-27.258816266243784,0.001239596780430096,-0.006459791503169025,0.000732579646078919,,,,
6.88,-1.491454935679719,-0.18143572019352944,-27.241254357173904,-0.0003446302664964334,-0.004906895350391052,0.0005865497156305871,81353.2967608319,,,
6.890000000000001,-1.4938608387889292,-0.18132444657938743,-27.231988534560806,0.00038540511396208566,-0.00734822723670188,-0.0004934779283353454,,,,
6.9,-1.500407502675517,-0.1781848203017212,-27.22040920865464,-0.0006326913303475256,-0.004291661784974238,0.0011715861350258786,81309.90802063025,33.49878957290284,-99.33808477077905,1824.4123158006307
6.91,-1.5024435348917329,-0.182282533173209,-27.199112364861538,-0.0007697269651121727,-0.006224118505504121,-0.00017238518092319634,,,,
6.92,-1.5060245319601093,-0.17932645918276302,-27.184003930584694,0.0015435450585197037,-0.00437508369441774,0.0001448752725869354,81270.3099498621,,,
6.93,-1.4977267222492725,-0.18004766969728508,-27.17495218638782,-0.0012419846614577308,-0.006903592818281229,-3.136033413756451e-05,,,,
6.94,-1.5054187487559376,-0.18368375350284633,-27.15664717276923,-0.0002043076126579395,-0.006144402274037054,-0.00045291383303095774,81228.1449911106,,,
6.95,-1.502388836486686,-0.17903234116666733,-27.14574383531001,-0.0010171840601163886,-0.004874113747745546,7.717153550737001e-05,,,,
6.96,-1.5032097845180428,-0.178004683462805,-27.130087304362995,0.001548290411061733,-0.006139749624022069,-0.00015448292720375594,81187.0165192743,,,
6.97,-1.5058984899428414,-0.1788497580938583,-27.113025926122265,0.00036057560046449147,-0.003944101777076325,-0.0015398093143378826,,,,
6.98,-1.511952463280199,-0.1721285226533533,-27.09910670031735,-0.00031623757300070084,-0.005607986831414798,0.0010641038784349132,81145.763080553,,,
6.99,-1.5090571200576552,-0.18135054002900636,-27.081513198388183,0.00011395018494296787,-0.006497154809824259,-0.002725463333988836,,,,
7.0,-1.5086456794062055,-0.17471572439845015,-27.06234906444369,0.0005784855708963728,-0.0071433139597022145,0.0005620887369803742,81105.01415346492,33.498850710466364,-99.33810974195221,1833.144536105077
7.01,-1.5097162373656772,-0.180033973778296,-27.044286534762048,0.0015948207594461672,-0.007200130853206114,0.0001600639962505947,,,,
7.0200000000000005,-1.5161086300833295,-0.1799737775189201,-27.024047067820526,9.965424313296923e-05,-0.0065325126397782944,-0.0007676837093078966,81063.75273223575,,,
7.03,-1.5151475784299109,-0.17970805261548803,-27.009308011488745,0.0004962350643999928,-0.0057652722176207965,-0.0003060070389049476,,,,
7.04,-1.509506269455315,-0.1832748690734229,-26.995263703990197,-6.873618493535144e-05,-0.004651638988998523,-0.0009408493015101327,81022.69566070568,,,
7.05,-1.519026725461573,-0.18392237779177698,-26.9810824450259,0.0006973478783585197,-0.00478824865633347,0.002161495087428262,,,,
7.0600000000000005,-1.515831235794216,-0.17786665150584052,-26.96915732109095,0.001098653726985499,-0.0075727536474385695,-0.00045713529447307207,80982.2615622002,,,
7.07,-1.5159757975621295,-0.17437880339406386,-26.954570508130534,0.001008458003391598,-0.007234299163988002,-0.0016528282239935243,,,,
7.08,-1.515573453941675,-0.17780631771164962,-26.93562775184391,0.0011645225159391968,-0.005259680806810405,0.0011711172944446283,80941.26704292012,,,
7.09,-1.5210778976371149,-0.18237691529709957,-26.922835010406786,0.0017622538311876843,-0.007308223139716292,0.000160275622991458,,,,
7.1000000000000005,-1.5249067815909274,-0.18170616546467488,-26.90299480047335,0.0007171535333902966,-0.006473232882678305,-0.0005052266272593768,80900.45909576399,33.49879063271378,-99.33816879438679,1863.165047039599
7.11,-1.5183606343355096,-0.1783574053024916,-26.88634932271417,0.0006179149248863893,-0.0040241116150728255,0.0010528509403759253,,,,
7.12,-1.5222933495742375,-0.1837762280836803,-26.867481334690055,0.00037245951710906743,-0.0065427923232026985,0.0009685404060924014,80859.29729908252,,,
7.13,-1.5227494141628584,-0.1801013392887638,-26.847942833830217,0.0023477563129235884,-0.0063744139130416134,0.0010670957383746692,,,,
7.140000000000001,-1.5282882969843141,-0.17946448770054965,-26.84116105710341,-0.0012327773098884253,-0.004413209873844146,-0.0004195586660439515,80818.63710022197,,,
7.15,-1.5307920575639662,-0.17656326817141701,-26.825776488406103,-0.0010229450905838615,-0.006126686538783812,-0.0006622609751824552,,,,
7.16,-1.531365657600635,-0.18252973743636658,-26.81118617576172,2.6919936422812154e-05,-0.004830311381413993,-0.0007006869181782521,80777.8025416538,,,
7.17,-1.528171830343787,-0.17927967196223785,-26.79341523678414,0.001382690399179961,-0.005398511599442583,0.0009857329494638687,,,,
7.18,-1.5355701396764718,-0.1777622151016131,-26.786807671400613,0.002160777862133491,-0.006251876114929055,0.0012458141928169647,80736.86459751261,,,
7.19,-1.5292656733021908,-0.18197654350794715,-26.772132460105247,0.0006450144613493584,-0.007629521318199151,0.0005037701144308712,,,,
7.2,-1.5344973149000054,-0.18331812457551538,-26.756709982951296,0.00020918635017872666,-0.00727521627382677,-0.0016154183291013297,80696.27269117007,33.49879603758757,-99.33815687716654,1878.7626025378156
7.21,-1.5345829000419122,-0.18984611292054515,-26.747532911411096,0.0017198082303450466,-0.005452647799561354,-0.0013845426856756264,,,,
7.22,-1.5403662990459437,-0.18256313411065647,-26.73458665834495,0.001577096408952316,-0.006863983742475927,0.0014525570206899562,80655.88856812795,,,
7.23,-1.5360260000047672,-0.18357082383767306,-26.712820726785203,0.0007044206533310584,-0.006231660969555917,-0.0010776081775076653,,,,
7.24,-1.533447322259763,-0.1851431816858119,-26.698873486043116,0.0015345325425872589,-0.007086871852662074,0.0012468464340014947,80618.17740045341,,,
7.25,-1.5410990701455696,-0.1820919485392609,-26.6758272267608,0.0026818563828739424,-0.0071223869466755015,0.001643621251410664,,,,
7.26,-1.5433138424544621,-0.18698075613537185,-26.660319413633072,0.000446751439250479,-0.007044020412378135,-0.0006289866310294925,80576.33949890888,,,
7.2700000000000005,-1.5422955764231918,-0.1853599334924265,-26.645627820670597,0.0003533205475441347,-0.004966815228998892,-3.7345211636376287e-05,,,,
7.28,-1.5439361073103228,-0.18208320125369418,-26.630898406612037,-0.0004048993378623349,-0.005165491580855496,-0.0007964104507262697,80536.74644768483,,,
7.29,-1.543461269215083,-0.1822438545604901,-26.619704857327495,-0.0009851456404009191,-0.007611178091412969,-0.0007018509093340943,,,,
7.3,-1.5487135535678702,-0.18997252731569128,-26.60181948743512,-0.0010003490520957413,-0.005850692617655228,-0.0012328480283783825,80496.59147140518,33.49878852863349,-99.33817001265697,1895.0353653049613
7.3100000000000005,-1.5448873661794085,-0.18656361989743686,-26.590458068875282,0.0010543348332857894,-0.006170454086628743,0.0030343325534333185,,,,
7.32,-1.5459587943706676,-0.18327460397772602,-26.57337138807238,-0.0002798236083718502,-0.0065386128102569545,-0.0007501667609841989,80455.5068900395,,,
7.33,-1.5493895584951203,-0.17940959847775634,-26.56200777693064,-0.0029060494668025506,-0.005579441526490783,-0.0002818306603855681,,,,
7.34,-1.5509218604550028,-0.18601372037206823,-26.545086391140615,0.000596322954354419,-0.0063945351086835255,0.0007706760812556995,80417.02039536579,,,
7.3500000000000005,-1.5544329971290487,-0.1810615027914965,-26.53096355434677,0.001039650738173067,-0.006253776951118806,0.0022487794685279367,,,,
7.36,-1.5513413486093466,-0.18457583919978757,-26.519898084637635,-0.0006688643508532231,-0.005422497041242393,-0.00022958952366962105,80377.3752939708,,,
7.37,-1.5532039994701317,-0.1756426194572123,-26.498493189352295,3.7550128774695244e-05,-0.00526014995856755,-0.0016032006099777995,,,,
7.38,-1.5584732582965617,-0.18197139611440427,-26.482727874356595,0.0023158614785827704,-0.005024761843018982,-0.0013153149984726164,80336.78430994537,,,
7.390000000000001,-1.5538258471920865,-0.18541324597352274,-26.469618540627284,0.001346455307152169,-0.008025321056249136,0.0013911720823307826,,,,
7.4,-1.5536587098842225,-0.1834224775357259,-26.452809898248695,0.0003218972416905674,-0.006930031311876431,-0.0014533074176760023,80299.43570399005,33.49881361464956,-99.33821489287106,1918.5953028340132
7.41,-1.5582736513455309,-0.1865528980099744,-26.446590931188446,-0.0005619836518273521,-0.006488064544805142,0.000669294248885913,,,,
7.42,-1.5557078603868362,-0.18435054289782277,-26.42928031643943,0.0008591502002797797,-0.006922101572950677,-0.0002448386887508056,80258.13466782798,,,
7.43,-1.5633400895016898,-0.1879190152760638,-26.4196859318793,0.0006118212084164008,-0.006369346032284505,0.0005315002107912321,,,,
7.44,-1.5582067236269375,-0.19052315433425018,-26.402194258124158,0.00134158503230442,-0.005216373269337328,0.0008445289099128779,80217.92821078838,,,
7.45,-1.5609517271948157,-0.1844864319735168,-26.389113590082204,0.0003324441300130493,-0.005879472480125717,-0.0013020416205959254,,,,
7.46,-1.5637775187366532,-0.18770516200491447,-26.37227912207734,-0.0008249075428762829,-0.0061690621101694225,0.001306872453660728,80178.99346374681,,,
7.47,-1.5654013111923206,-0.18819180077857836,-26.36872854736286,0.0007260528229442534,-0.005682175163217235,-0.0004162498769513166,,,,
7.48,-1.567335609763826,-0.18724747121848748,-26.34992650585671,0.0029066348264792197,-0.00478774890179304,-0.0006503882115184645,80139.9797640754,,,
7.49,-1.5727467319510793,-0.18278485949308293,-26.33707569655065,-0.0002588606002299817,-0.0067989362000769596,-0.00011382236376312689,,,,
7.5,-1.5709096189959613,-0.18323166462581258,-26.32132233300663,0.0006790113929506221,-0.006779830226781305,0.000389732051793207,80101.50713085473,33.49876972364669,-99.33817132324864,1946.940069950704
7.51,-1.5733445775904682,-0.18229077529501186,-26.299071149086,0.0007975699733682792,-0.006472317728057333,0.00030175490704716947,,,,
7.5200000000000005,-1.567202547621914,-0.18316145663790118,-26.28694281399738,0.0017006297122886297,-0.003489133038923214,0.0006024957113524185,80062.46854378647,,,
7.53,-1.572882018181506,-0.18683542627648772,-26.27841223457997,0.0019137375784486752,-0.007662942633142893,-0.0006061438966364855,,,,
7.54,-1.5773363039345611,-0.1849951045189182,-26.25542787106684,0.0010347475129053748,-0.00582303982499603,-0.0010745691872728587,80022.93261879824,,,
7.55,-1.5756338793598832,-0.1892134463716286,-26.2445018951439,0.00042342590711580424,-0.004953883895389257,0.0003158402873060453,,,,
7.5600000000000005,-1.573065996510769,-0.18505221418913204,-26.236501963462455,-6.532650499799686e-05,-0.005944550271372783,0.0012712622660878549,79984.07842728733,,,
7.57,-1.576119161074334,-0.18645566065322605,-26.22644107008406,0.0013831939076248954,-0.006533219784056953,1.0579331923968549e-05,,,,
7.58,-1.5755700300665987,-0.1919345885850112,-26.205100179076396,0.0007218166512221487,-0.005164996897341721,-0.00038690375503597045,79944.59743703713,,,
7.59,-1.5795167860733144,-0.18350484740763262,-26.18744693707546,0.002635070685014218,-0.006654621238368416,0.00010543553368261394,,,,
7.6000000000000005,-1.5783990105220045,-0.18918562063061584,-26.172437619825256,-0.0007388999915002253,-0.0036480109492010877,0.0007411092830229447,79905.82424473575,33.498828326960464,-99.33817111573335,1958.7098294792702
7.61,-1.581505682531949,-0.18590538884175029,-26.1584889493595,0.0017603951668579874,-0.006409985207795956,-0.0010223906582809876,,,,
7.62,-1.58299042293243,-0.18943471039767143,-26.142210112307236,5.107642366156324e-05,-0.00592107238102053,-0.001478279124484365,79867.26119182183,,,
7.63,-1.588766235798608,-0.1860603763728517,-26.128657768750376,-3.0616498413569984e-05,-0.006180329999389521,-0.0013863470872748987,,,,
7.640000000000001,-1.5892896922547954,-0.18752866378011354,-26.118717314423577,0.00022527998367072804,-0.006351263472162608,-0.00033522627702005993,79828.14328800498,,,
7.65,-1.5863199808678805,-0.18695169681850504,-26.104897311988324,0.0014947957763158156,-0.006371865028053152,-0.00033647282804078165,,,,
7.66,-1.5863716464958202,-0.19063890380674922,-26.09092392528219,0.00030266467743896036,-0.006502965480210129,0.0010402752082530103,79790.84344869932,,,
7.67,-1.5906345079770496,-0.1820607124439449,-26.081725251672463,0.00039769899027558906,-0.005344958418803437,-0.00034900974045879037,,,,
7.68,-1.5905196903237726,-0.19172672300806623,-26.06571726817624,0.0009745614333384561,-0.006103846357583494,0.0003727133694288946,79751.60480683073,,,
7.69,-1.5901303603798513,-0.1858886141155435,-26.054933192627477,0.00014837602546851524,-0.006051763656918445,0.0008672947219221956,,,,
7.7,-1.5955791967801871,-0.18746622678048905,-26.039004944090223,0.002154594759447632,-0.006534847574286075,-0.001667794514704503,79715.10872757113,33.49881041304719,-99.33820136815237,1979.4883906818932
7.71,-1.5946287531564556,-0.18945080168299577,-26.025703353330563,0.0007200761974947338,-0.0060224531392986174,0.000877607284317478,,,,
7.72,-1.5940934250001102,-0.18749150180686008,-26.01847845911558,0.0011593605588035216,-0.006182185994422665,0.00020318102316741003,79675.51911011175,,,
7.73,-1.600172241866723,-0.18501635518472015,-26.004031194207656,0.000640510218521568,-0.004697841776490583,-0.0015141837234284923,,,,
7.74,-1.595875322103453,-0.18529375693594313,-25.98918053833217,0.0007496378880165687,-0.0059410314725736124,-0.0007039228027793416,79636.2572846871,,,
7.75,-1.6023040692563044,-0.19070247705991455,-25.975266722768723,0.00010243047423664868,-0.0051042009985002535,0.00012278245985333146,,,,
7.76,-1.5963045233586763,-0.18595783916195568,-25.965851746414216,0.0012271882612091218,-0.0071874619005628205,-0.0006532643473666137,79598.99054936587,,,
7.7700000000000005,-1.600292758300613,-0.1878902598484042,-25.949011866144776,4.264847185888893e-05,-0.008408948634358197,-0.000354304239495706,,,,
7.78,-1.6039527207456883,-0.1874320922281003,-25.93850449654956,0.0010001817400875578,-0.006039961693994676,7.998184181497009e-05,79561.47811039268,,,
7.79,-1.6070836274673908,-0.1923220243640141,-25.920254048053522,-0.00030092748706329225,-0.00620082840706053,0.0016454215867373037,,,,
7.8,-1.6094327620117408,-0.18646421050352943,-25.90418362093164,0.000950052707460121,-0.007300552592446058,0.00017692178983478983,79523.88858080842,33.498825757727644,-99.33827582302914,1997.3651627882005
7.8100000000000005,-1.6073168868880492,-0.1934731470377767,-25.891324947900895,-0.00010330987723699333,-0.006439458644336613,-0.0007824762581524901,,,,
7.82,-1.611842223682098,-0.18818925280094315,-25.877285192769396,0.0001971042893528278,-0.00683597766665513,0.0017138085979155433,79485.03042837308,,,
7.83,-1.6088408999896395,-0.19458561599246557,-25.872430042765554,0.0008268846619426712,-0.007127812599615315,-0.0004821554707747369,,,,
7.84,-1.6105450729609714,-0.19041017248365952,-25.85523724041841,0.0015574020488219494,-0.007559172427139757,0.00036502157511984095,79448.80614406882,,,
7.8500000000000005,-1.6175540218259663,-0.18686522424570598,-25.840293847226565,0.0007381960528403256,-0.0040072874809513066,0.00022329638682685134,,,,
7.86,-1.6135055088491743,-0.18941489633708805,-25.833556404077463,0.0007233960434173187,-0.00736968332402719,0.0010065400479136247,79410.9527790762,,,
7.87,-1.61438513348375,-0.18703737623974287,-25.826570992174002,0.0010479612319127757,-0.0063785010012918945,0.0009465117712691463,,,,
7.88,-1.6181348369387678,-0.18911641456833247,-25.809788441994602,0.0016326994499847396,-0.006564380025314163,-0.0008668080011112522,79371.88551959106,,,
7.890000000000001,-1.612533255929068,-0.19224716633312727,-25.792679283511294,0.003202089975156303,-0.007722348028751675,-0.00012556333517386558,,,,
7.9,-1.6187238437323928,-0.18269224357406055,-25.778847583449764,0.00023839963346781556,-0.007535361917721799,-7.292407896193364e-05,79334.81372827775,33.49881022001151,-99.33811192443335,2016.865482656875
7.91,-1.621107583779535,-0.19098517195000878,-25.76602286442446,0.0016025968300124574,-0.006291055000437986,0.0005048620879044574,,,,
7.92,-1.6207038164200738,-0.19560783791171082,-25.7537302418026,0.0004466442895666996,-0.007514936191705861,-0.0004907381562425933,79297.74091267596,,,
7.930000000000001,-1.620756985768964,-0.19168029711399723,-25.73402485868425,-0.0007878823683581536,-0.008173867096008572,-0.0008095800332597844,,,,
7.94,-1.6201820662760895,-0.19206240503988406,-25.721629142640342,-0.0005065488686091411,-0.005223398678807382,-0.0003467987312743674,79260.33077750007,,,
