time_s,accelerometer_x,accelerometer_y,accelerometer_z,gyroscope_x,gyroscope_y,gyroscope_z,barometer_v1,gnss_x,gnss_y,gnss_z
0.0,-0.0012579467925879259,-0.0005223678942999462,-9.77290222181034,-0.0008075433798059328,0.0006661591991339245,0.0004376621112921029,96454.43385351989,33.49866135430758,-99.33762681730529,407.5983828708101
0.01,0.0041616003109310185,-0.003830973285018298,16.57284938379084,8.568487796118794e-05,-6.793847378229718e-05,0.000982973615648117,,,,
0.02,-0.00034132134002009965,-0.0021570093483657695,30.070788791166144,0.0019803026657787435,0.0022947471846096646,0.0005731453053789908,96454.15833143811,,,
0.03,0.0017524814285723063,0.0031930483561188553,43.558472526370146,0.0004077852948517054,-0.001005606335714835,0.0005072202944872985,,,,
0.04,-0.003215249262437171,0.004131881666322105,57.05459694948071,0.0006153220785623405,-0.0010811862165138971,0.00046730279206110286,96452.81607649823,,,
0.05,-0.003845830708960406,0.004247093333911423,68.57041331163911,-3.556532490012972e-05,5.722315004100693e-06,0.0008673271619760821,,,,
0.06,-0.002180005902475269,0.006897945690620651,80.08260852211542,-0.0003610333725535497,0.0009507249697256118,-0.0009347463605676094,96453.68629007763,,,
0.07,0.0011886996781738624,-0.0019305954419420234,83.50661092514372,-0.0008253361831777784,0.00017205533772680833,0.0013654070991099868,,,,
0.08,0.0003951715745924824,-0.004654897446402983,86.84822935126654,-0.0015716639895428256,-0.0009557967312425792,0.00031547032520971196,96451.51012815788,,,
0.09,-0.005512057963496144,-0.00184160624628713,86.28744143826044,-0.0005341173671207007,0.00037424342308430773,0.0006371302513669345,,,,
0.1,0.0004581209314097704,0.005282318906820143,85.67642033358166,-4.526414298940063e-05,0.0010871529952937262,1.2352023706530343e-05,96452.88441350419,33.498582850936415,-99.33760385118282,406.83601680772716
0.11,-0.0033662515973969867,-0.0011498123110505716,85.1817704103291,0.00024204636498136516,-0.002165182145280543,-0.000360413547249347,,,,
0.12,-0.001475156333657902,-0.00020646358586254618,84.68646882318201,-0.00012087763910918512,-0.0010506465001697462,-0.0014152643981241368,96449.39686224832,,,
0.13,0.001766988175396756,-0.002568729546313969,84.41172462302981,0.0007050796864234455,-0.0008835171407125227,-0.0009946952839545752,,,,
0.14,0.0056504891388763825,-0.002137868855524567,84.1315618474119,-0.0009874073728435432,0.00038064624288735595,-0.00017917811105523169,96447.25579662174,,,
0.15,-0.003149150027436272,0.0010068410095439824,84.13236123612248,0.0004242844605337411,-0.0007701562434840189,0.0002393312944060653,,,,
0.16,-0.0001233931684808209,-0.0046720962872500785,84.1257530903205,0.0006300452910589507,0.0009462706962041687,0.00028031992881210466,96444.8444341108,,,
0.17,0.0021866936817068615,-0.0029035951262962076,84.2637639555585,-0.001424612955257263,-0.0002947571898526089,0.00019650163435037723,,,,
0.18,0.0008084852477984072,0.0024619374834390305,84.38616177550009,0.001959199575524986,0.00045066722690915555,-0.0017612894485968353,96441.17408911475,,,
0.19,-0.0001191511972407398,-0.0025020294646410234,84.3677941697465,0.0008036275801894968,0.00017800766763166837,0.0011162041830828464,,,,
0.2,-0.0011103000389356208,-0.00033658666582457266,84.35046073778119,-8.454963754411153e-05,0.0009138759998942008,-6.547553727288747e-05,96438.00399079909,33.49862363193935,-99.33760695404176,424.2717530850734
0.21,0.005393301788047526,-0.002201833578463952,84.37994289347203,0.0005434678759076663,0.0010970156775283809,-0.0011311714508720795,,,,
0.22,-0.0036325127117091045,0.005962827814008913,84.41098720565475,-0.0002474308789899612,0.000599243916335477,-0.0011574351756713484,96433.46043740519,,,
0.23,0.006869859325948225,-0.001185614713584324,84.4546317854528,0.0007013068419222576,0.000516982464254811,-0.0008976194532865767,,,,
0.24,0.00019027252994838933,0.0009191292932745918,84.50568919897907,0.0015604510508237942,0.000325784515673577,-0.0006383728195286729,96428.66206476372,,,
0.25,-0.0036175387797019957,-0.004138389822946249,84.54747736772188,-0.0011037347934730157,0.0005831576896896966,3.14306047337044e-06,,,,
0.26,-0.003562032559900288,-0.0048126370609499645,84.5803043390819,8.17641643844142e-06,-0.00017151172404374708,0.00021349636210023148,96424.76154845019,,,
0.27,1.0984029648747706e-05,-0.0024331487931219947,84.73195054429368,0.00024054283883518672,-0.0013471419415411927,-0.001006860939555896,,,,
0.28,-0.004168695293408937,-0.003346030562636026,84.87180272596906,2.5107079598266916e-06,-0.0018503827644799603,-9.349277799485809e-05,96418.69672322618,,,
0.29,-0.001326672265251126,0.0015699841034617628,85.02204489772089,0.002238937913432725,0.00036934299323751046,-0.0005776059447626477,,,,
0.3,-0.002198603025692014,-4.3720679065947416e-05,85.17510419434241,0.0014677248770219604,0.0006028841319166594,-0.0011973742529048604,96414.14655787837,33.49860982820768,-99.33760843383216,419.4564395392301
0.31,0.0023345180354471984,-0.00631305303362638,85.32705377218429,-0.0020718464512584156,-0.0014526338012484312,-0.00014787613552279374,,,,
0.32,0.006405262709664659,0.0008254654632669554,85.4683608333874,-1.8736144499542264e-05,-0.00028425174575367866,-0.0008907110822031172,96407.25447532209,,,
0.33,0.0008668009304080285,-0.000959992007965092,85.6042386920436,-0.0005173112023526056,0.00015497005880298135,0.0013118739757315473,,,,
0.34,0.0006312899578538349,0.003325086279061301,85.74767066122264,-0.0005627790854596325,-0.0004681065051031891,-0.0003594424541427046,96400.82593751306,,,
0.35000000000000003,-0.003628917435166781,-0.0017550463077266685,85.8671868306193,-0.0016328555216497446,0.0008697152104428957,-0.0014758379917280912,,,,
0.36,0.0005494163974474302,0.004585750073116444,85.96942344690187,0.0014786526640571149,-0.00013248704055412075,0.00020541190417551011,96393.40871421828,,,
0.37,-0.0005448999024245746,-0.0064542789699457695,86.09535842180394,0.0017068044623261285,-0.0015963081989739376,0.00023264878675244977,,,,
0.38,-0.0036076165310390015,-0.0008134592793864943,86.21473934565746,-0.0017711725371235478,0.0005867301936563777,0.0021458295420163265,96384.85364273023,,,
0.39,0.0030863970760843336,-0.0015956408060792881,86.36481151683574,0.0003811343343458199,-0.0002054752346358513,-9.943991271593489e-05,,,,
0.4,-0.003789732615296716,0.002188520114038881,86.51544593638442,0.0011166831208200096,5.602030636473459e-05,-0.0011234091596987127,96378.4384018366,33.498653249488115,-99.3376207092206,412.715214447478
0.41000000000000003,0.001684636331090281,0.001274931190686223,86.84518904025526,0.0010601335100764897,-0.0006889355380982432,-0.00013183469623335807,,,,
0.42,0.003065323384110511,0.0005479329634277723,87.18874654633461,-4.4927343175028723e-05,0.0001817309151008995,-0.0009814306962822963,96369.35501008776,,,
0.43,0.0028812480270650766,-0.0013638002081497141,87.32801361215017,-0.000755761515918674,-0.001276956101099458,-0.0007811128524735996,,,,
0.44,0.0036747765748044716,0.0020380134088788075,87.44601360583498,-0.0011260468875430654,-0.0011293071921448506,-0.000605389422696227,96360.6993461486,,,
0.45,0.00016833464685553324,-0.00018873276302799953,87.61706064047162,0.001064186207815804,0.000875194074267084,-5.3809499068363397e-05,,,,
0.46,-0.0007455923303688253,0.007195467447653641,87.78178030624967,-0.0005708910885972708,4.3978906883793374e-05,0.0006219529471291083,96351.30363522058,,,
0.47000000000000003,-0.0012635029815942034,0.0027508921248208997,87.89270645462992,0.00030463567552690784,0.0007169666778511969,0.00035649531120989365,,,,
0.48,0.0011341896976672055,0.0033093387302475935,87.99219462075692,-0.000664532420023485,0.0011514900359430923,0.0009178635591821475,96341.6156752294,,,
0.49,-0.002897130542492009,0.00041272639202260956,87.936635791184,-0.00024263542956004424,-0.0015023757626190604,-0.0014201445056696072,,,,
0.5,0.0023883541212931336,0.0020703963543175115,87.85817384132145,-0.000194197773219499,-0.0005554632143624636,-0.00014259418215044312,96331.80141159227,33.49858123048296,-99.33758659031739,426.81521574443775
0.51,0.001768394722934816,0.004123775820727115,88.07002086290146,-0.00016730389679153144,0.0014426134722526998,-0.002215020731416997,,,,
0.52,-0.001274326578930356,0.000980805979088627,88.30373468950282,1.4844685612992156e-05,-0.0006697086422861557,-3.588554276883477e-05,96320.9759913868,,,
0.53,0.003011541956729674,-0.0020149351040122405,88.50589148678199,1.5546444672388192e-05,0.002157965474068786,0.0006377311548865907,,,,
0.54,-0.000437206775943132,0.002007390251981246,88.71283437965455,0.0007240897203418923,-4.0521864772543485e-05,-2.09570416688513e-05,96308.93958388173,,,
0.55,-0.0008259146549441097,0.0012632182593008824,88.95141880313359,-0.0008168380784793925,0.0005932605413735603,0.0015631696015202372,,,,
0.56,0.002127048551353095,0.0014060056451729859,89.19321669182182,0.0016268586984620507,0.0008302196242767899,0.002235143615168263,96297.40914010713,,,
0.5700000000000001,0.0008420823591003922,-0.0008231113509719145,89.39392422589071,-0.00086621891892221,0.0004818648954571207,-0.0003033451784276362,,,,
0.58,0.00451760150401903,-0.0007513364066115424,89.59968529505728,-0.002012836556167253,0.0002696639673961178,0.00044822443312299244,96286.31617405872,,,
0.59,-0.0048797802333343495,0.0030720318425785306,89.76361008831371,-0.0007813529400383265,0.0007708315874145988,0.00037053963401827183,,,,
0.6,0.0017611235138980414,-0.0015294091091856254,89.9223872899074,-0.0008619227100530638,-0.002827141400238096,-1.1199746839210306e-05,96273.26887810588,33.498628991394995,-99.3375832954411,428.19788877226904
0.61,-0.0026743435475578116,0.0008175938810430563,90.06569718728213,0.0001931250112336142,3.964852924796226e-05,-0.0007775825552369997,,,,
0.62,-0.003420786750601356,0.003990451961566116,90.21383440697707,-0.0004932571600586495,-0.0010054152019000988,0.0007077494104122829,96259.2913582547,,,
0.63,-0.003301322550817616,-0.001680585096250353,90.39264353759202,0.000341729706942345,-0.0013517164672486313,-0.001003287995118023,,,,
0.64,0.0022368934298804296,-0.001282432925267321,90.57726850365634,0.0013738325651891953,-0.0012014680363382018,0.0005448233280305223,96245.71577929397,,,
0.65,0.003514202888513772,0.0005381263705935757,90.83052035786018,-0.0010577528049638975,-0.0009200549461760753,-0.001370189510862702,,,,
0.66,0.002599226896770238,-0.0013539314449629693,91.09400811368478,0.0011074910330130603,-0.0006675487682572907,-0.001239390261190352,96232.34314297051,,,
0.67,0.0001430733570838673,0.002612020866123525,91.38462661839539,0.0008770253823800104,0.0006850569612217231,0.0011091436521791986,,,,
0.68,-0.004299996702751303,0.002366413617135152,91.6680600603453,-0.0006812953852257525,-0.0004269657480141713,-0.0003628423206620051,96217.74822175282,,,
0.6900000000000001,-0.000521387863548661,-0.0008634694805567105,92.00335793565037,-0.0005670990060996615,0.0005387423241720518,0.0010113460669886644,,,,
0.7000000000000001,-0.003343472718540466,0.0052054108804666386,92.33453883420127,0.0006006746766708441,-0.0001028802893961035,-0.0002887896028757456,96203.7228260813,33.498584631930306,-99.33759347418255,435.31839196531104
0.71,0.002812061926973318,-0.005428682342887858,92.70349632900364,0.0009588840114839165,0.0018706352991137384,-0.0004604425033873112,,,,
0.72,-0.0050462225013330865,-0.003845300791896013,93.07554833299733,-0.0009659406364140802,-0.00035703422401255704,-0.0007927169340467546,96188.28387273957,,,
0.73,0.0027576776825030533,-0.005918065548370902,93.47095713976064,-0.000764925925210993,-0.0004682015465427607,-0.0008211581873361921,,,,
0.74,0.002675909709143068,0.0015883449943395705,93.86927869266721,0.000655913769715062,-0.0008084014182002511,0.0010386140259567103,96173.61935267565,,,
0.75,-0.003309101710605312,-0.0006040517681154932,94.27918845549921,0.00015638626700034772,0.0006153264914772047,-0.0005494689146718165,,,,
0.76,-0.00013796508662021267,-0.000680098609241578,94.69211420651243,-0.0007776706602774654,-0.00041286540731122115,3.4666499780057444e-05,96156.07502805485,,,
0.77,-0.0024268541202908736,-0.0005148807935008266,95.1074415788723,-0.0006834526457362564,0.0013636397661272591,-0.0016149110786457912,,,,
0.78,-0.0002517711063656114,-2.2564289103939765e-05,95.52080653410341,-0.000752397510701833,-3.582924810912102e-05,0.0007303986608969523,96138.96642587564,,,
0.79,0.0030031933260972962,0.0034301800338503528,95.92087047171786,-0.0005978008709007742,0.0002211099775669864,-0.0009473399969157371,,,,
0.8,-0.0017093734693407307,-0.005488720228176023,96.31477487712509,0.0002828291406003278,0.0007932005305265567,0.0006262102525541065,96121.93668390864,33.49865531188006,-99.33757811838676,442.6164512842285
0.81,-0.002983380533819208,0.0033789385392489616,96.66695120595824,-0.0006515900108625215,0.00020473786481415809,-0.0006967827145574278,,,,
0.8200000000000001,-0.003408681620466342,-0.003332796133618441,97.00150741084582,0.0012930195406995247,0.0009770137650157633,-3.5632168203049776e-05,96105.55272804189,,,
0.8300000000000001,-0.003682350888525854,-0.00023693071680915072,97.29662562864189,-0.0008499341125232482,-0.0006995803029121247,0.0007873890240245526,,,,
0.84,0.0005945468338283534,-0.003413422814140804,97.58242509687362,6.421033938844958e-05,0.0013699341649248457,0.000757780799910202,96085.23992958142,,,
0.85,0.0002263273961294638,0.0053612260641735235,97.83182048054158,0.0008521031904253179,-0.0002578119483176935,-0.0001989831542703021,,,,
0.86,-0.002909620939019082,0.001526193728877056,98.07738353863772,0.0015838287628704864,0.0021743058915298656,0.0005360073422093831,96068.59261458069,,,
0.87,-0.0011135550362134348,-0.0028269641371576706,98.2968578721953,-0.00017418352338221258,0.000806285255387316,-0.000519552336356386,,,,
0.88,-0.0022320678376013545,-0.00032209183730279577,98.5146917685747,-0.002011626933239645,0.001024866846185263,-3.9491215026859035e-05,96049.22700369333,,,
0.89,-0.001976147180669876,0.002976287275139777,98.73512992132163,0.0014304955729814743,0.00010514486854104918,-0.00033780374347801956,,,,
0.9,-0.001379469511122523,0.0017208399179694251,98.9532789322854,0.0007588542933761709,0.00025301921350873516,0.0005029983787017269,96028.97124383209,33.4986120579225,-99.33762622788261,451.574032931544
0.91,0.0013343855028768226,0.0032450152525432324,99.18711124832859,0.0007356611480264977,0.0013254391284492537,-0.0013650270616788385,,,,
0.92,0.00015611757434734363,0.0039979945749280855,99.41472883487467,-0.0005107290064037855,-0.00033005813522789723,-9.542897816112084e-05,96008.3198502674,,,
0.93,0.00043058587487047396,-0.0022265746923832647,99.62676789577944,0.0008210328960070033,0.0004131409434534795,-0.00043748258909141486,,,,
0.9400000000000001,-0.0033036098833891365,0.0024343531788420026,99.8442339580586,0.0006255465531655829,-0.002130168641370467,7.129099878951255e-05,95988.00543111327,,,
0.9500000000000001,0.0008176601037180724,-0.0036823891802881185,100.03174908807947,-0.0007627768572470124,-0.00048120045054111276,0.00020962252053301377,,,,
0.96,-0.004810942447015387,0.001521613636192447,100.21574225871382,0.0008508702993639858,-0.0004467930727365929,0.001161888058496088,95966.90604793608,,,
0.97,-0.0009712071037775118,0.0003717629912468149,100.36178092770841,0.0019998098850306364,0.001413193614749214,-0.001000147604617674,,,,
0.98,0.005403095384078722,0.0058724175396894845,100.50492228729819,0.0009561437662891893,-7.463529676278909e-05,0.000880372595383547,95944.61366596726,,,
0.99,0.0018860025443423474,0.002016156103576309,100.58163357865847,-0.000535010049798455,0.0010053051954390262,-0.001145083265060736,,,,
1.0,-0.001777088313949405,-0.007541904402816819,100.65817687756643,0.0005899078214991989,-0.00036388786463360876,-0.0005102552055066235,95921.76988736843,33.498600472754056,-99.3376300669308,463.59799657399765
1.01,-0.003293551718078254,0.0011044262914281615,100.71287508679556,0.0010891896074971279,0.00038509392457529613,-9.106911264424654e-05,,,,
1.02,-0.003306864509899425,-0.0072719846284618455,100.75602646815477,0.0004015118483693808,0.00021710018321529777,0.0013158396295239669,95901.38195653755,,,
1.03,0.00687821593403813,0.00526710121039541,100.80761598981294,0.00013197967840174898,-0.0006744285603532107,0.0004080519949525218,,,,
1.04,-0.003564105812690933,0.0015603221423924182,100.85362211720721,0.0006269526697470731,-0.0006148555783809279,0.0005558491074404875,95876.47603098974,,,
1.05,-0.0003201396370336892,-0.0011014889560906776,100.92479245744828,0.0009107276387274672,-0.0002873539886175614,0.0006443266614872993,,,,
1.06,0.004315950006741043,-0.0011510524749155748,100.99844526499385,4.7813553769218453e-05,-0.0016227446423130265,-7.807723607099206e-05,95853.41896381044,,,
1.07,-0.00030027625232420047,0.0037841810397485983,101.10655950869453,0.0006403998942786162,0.0005195836601026714,0.0004885988830096146,,,,
1.08,0.005832438738278787,-0.005083514311367832,101.21550350498242,-0.00016926160173138003,-0.0018607721290436732,-0.0005492675308570424,95829.86965046695,,,
1.09,0.00798380710791618,0.0019263488501373488,101.33316907387548,-0.00035804451676625264,-0.0007282221846230226,-0.0012822721806668629,,,,
1.1,0.00553975709213646,0.007643382136860946,101.4587158063433,-0.0007832611633494131,8.855474541601725e-05,0.00046421091111123,95803.99716532987,33.498628171847606,-99.33761489556716,470.5942095627976
1.11,0.0008976645260467714,-0.00504155296039384,101.56247417957344,0.000378919794513708,0.0011307521471192064,-0.0026604544344085096,,,,
1.12,0.006171720372764338,0.0019757924272240913,101.66980344538301,0.000772993674737706,-0.0009560912371351061,-0.00023727106660019622,95777.9253064134,,,
1.1300000000000001,0.00026535426181737776,-0.0020103287174745464,101.7614450139014,-0.00020659831285617448,-0.0011288597107022948,3.98756751932652e-05,,,,
1.1400000000000001,0.0007207603337233371,0.0024422169752134617,101.8452253930796,0.0015059328199706764,-0.00048319708656489906,0.00021535643177701005,95752.95099686983,,,
1.1500000000000001,0.00016244737087025323,0.0007490169392383536,101.92417087615779,0.000839482498748491,0.0009416364471710584,-1.9207805714294803e-05,,,,
1.16,0.000475609823122474,0.0015515023723084035,101.99304794776195,-0.0002843968712626006,-0.0004013629845425817,0.0005641999108071452,95727.23888600437,,,
1.17,3.2816422440525464e-05,-0.0004395834480041408,102.07500183594662,0.00024546342157710007,-7.390523410907595e-05,0.00044032832763975813,,,,
1.18,-0.0013172479839859326,-0.002096412163153506,102.15029187121922,0.0005475157073154901,-6.505920420217847e-05,0.0008919868234544036,95699.63233850303,,,
1.19,-0.003570365824944203,0.0009018302571381743,102.22965522135271,-0.0001711860681000881,0.0016761738900901726,-0.0008874297653423831,,,,
1.2,-0.0007415406761426316,-0.00041225572063231054,102.31697529563,-9.682034124197246e-05,0.0012268187214774364,0.0014920639987972292,95672.44367677462,33.498661707338535,-99.33763115731884,488.9845702376849
1.21,-0.0021189973912408063,-0.0012669024146731126,102.40622234303922,0.0007505164470702592,0.0009010393032206073,-0.00023996699950019334,,,,
1.22,-0.0007066140366478735,0.008315250183709929,102.48807814660303,0.00045022807771562154,-0.00022335606592487867,-0.0009864173783859184,95644.57033910572,,,
1.23,-0.003612087951396902,-0.0028431910424442704,102.56742917793805,-0.0007018749482006492,0.0002605386442528549,-0.0012974079865269712,,,,
1.24,0.0016898512080216583,3.3568310877664826e-05,102.64421867643784,-0.0014352571582574357,0.0009418129841781557,7.896352517797229e-05,95618.13232615964,,,
1.25,-0.0011724135984588064,-0.0027849776477677523,102.70606356068832,0.0018670985325838813,-0.0006986384179074015,0.0003647941810228117,,,,
1.26,-7.382917926913459e-05,0.0017599571623070586,102.76278582566168,-0.0002622934351605423,-0.00179509685344046,0.00010200249118620204,95586.38073485027,,,
1.27,0.0062027070860579655,0.000788760355961113,102.80796062475838,0.00047592348714314,-0.0010540716397112438,0.0004304740375509521,,,,
1.28,-0.003878293024747672,-0.0003835876343134314,102.85713999741172,-0.0011895028911963464,0.0024833909473495745,-6.996151314983276e-05,95558.94162890065,,,
1.29,-0.00029866916624634503,-0.004658897709149492,102.90533186198006,-0.00043967665400489864,-0.0006148473479210406,0.00015297458776970742,,,,
1.3,0.0009196062880743914,-0.0009841910233870405,102.95519394119269,0.000579365747837817,0.0012160548109912115,0.0009766445084275484,95528.14832648187,33.49865022587236,-99.33755373422345,495.0043478603729
1.31,0.0014890744803896382,0.0013268709431923926,103.02129902152328,-0.0005356016067538386,0.00035561484367254705,-3.7205745726684404e-05,,,,
1.32,-0.0009733639165150943,-0.002501693982698712,103.10287137709861,-0.0004769203188595768,-0.0013848659935992783,0.0006604921284201846,95498.44658174145,,,
1.33,-0.0002140761187937086,0.0034825100863940116,103.19811463459345,0.0004102444052582727,-0.0007146052474955752,-0.0009783241024203383,,,,
1.34,0.0011506708323309747,-0.0018027857170762628,103.29515191264713,0.0006995017679463047,0.0021478300499623783,0.0005701429485384344,95467.20099477195,,,
1.35,-0.0023968275738584038,0.00123178624765843,103.410620377422,-0.0006756527503779093,0.0005904754527959479,-0.001410749777347143,,,,
1.36,0.0015201559936310028,2.4030864210933154e-05,103.52604291123527,1.877451662501986e-05,0.00039970818428222455,-0.001315277613173603,95435.30431949366,,,
1.37,0.0023672962499654915,-0.00488555876108615,103.67313595619329,-6.515399728844348e-05,0.0006301691639141566,0.0013128441350621432,,,,
1.3800000000000001,-0.0004243303941796335,0.0005758984973234391,103.7995948899145,0.00014582126272715394,0.00046970044166521393,-0.0005292288059153199,95403.64191455265,,,
1.3900000000000001,0.0004590697343386708,0.000325071238176248,103.97913917175205,-0.0008795058590240801,0.0017474852719764052,6.367871298821423e-05,,,,
1.4000000000000001,-0.0047075873009073494,-0.008171662604651244,104.15139362664976,-0.0006361306160516676,-0.0009756148781061875,-0.000540601625633201,95371.82454292233,33.498672348657614,-99.33761263057008,514.9997746132889
1.41,-0.0005007003215889612,-0.0010613755334210732,104.37030618829024,-0.000166369327325919,-0.00240976307229926,0.0004502059869725387,,,,
1.42,-0.0012682134297131201,0.0008652843411973034,104.5895298363605,0.0011225131663175844,-0.0008679784496830559,-0.0011951190275696748,95339.20132141921,,,
1.43,-0.010343569339898447,-0.0012180407527482547,104.74520278202813,-0.0008053960607312247,0.0010215466115730358,0.0009356687445429519,,,,
1.44,0.0032075888759958565,0.0005064729732234285,104.90987098579367,0.00016755500544199633,0.0003791208535303073,-0.000286116354977821,95304.39559500778,,,
1.45,-0.0021885851370302403,-0.0010956692527460336,104.98267254890098,-0.0009934096960077417,-0.002189016216271604,3.288393914391843e-05,,,,
1.46,-0.003740211862699006,-0.0018783336748442565,105.0552467889862,-0.0011542584951211184,-0.0010092006573841049,-0.00026762446176354087,95270.78414791782,,,
1.47,-0.000400108591895931,0.0034473938568572214,105.02817358078535,-0.0007169429374436636,0.0009188116659972376,-0.00020202384574959055,,,,
1.48,-0.000752042179548556,-0.0011063144314188158,105.00482958765565,0.0007843960143829897,-0.0008146133998812028,0.0006620538140700196,95235.76868330038,,,
1.49,0.002831827125189198,0.002116714355131217,104.91018955805508,0.001294935767624292,0.0016740652165370107,-0.00017939971413015256,,,,
1.5,-0.003556002909089593,0.002710701491313807,104.80410527028539,0.0007713759291441016,0.0008588080255812344,-0.00037752088763900045,95201.76069259529,33.498596285137104,-99.33756401865294,527.5325850189906
1.51,0.004530745245080831,-0.002596468608253231,104.74389291123458,0.0006913035200973715,-0.0015697558537288913,-0.0013217993498939953,,,,
1.52,-0.0032779707450534246,7.224634439745353e-05,104.67121893967929,0.0017759193631050412,-0.0010981478799478757,0.00029850443563745715,95167.74837978747,,,
1.53,0.0015106530117895468,-0.005089837817938636,104.66092693848898,-0.00039919794999566043,-0.00022850717230328706,0.0004868225233630246,,,,
1.54,0.001287674402170454,0.0009940256840262447,104.65526399124757,-0.000878994557228471,-0.0016932846875566778,1.8931940524049642e-05,95129.98924236964,,,
1.55,0.0014842574599641973,0.002264756898441648,104.65403232310851,0.001692561979854927,0.0011719325808492026,-0.0019361068678916673,,,,
1.56,3.561349438098447e-05,-0.0003912730533804752,104.65163905923045,-0.0012208944283886812,-0.0006691440298339261,-0.0006464930556420964,95092.31297065614,,,
1.57,0.0015577946853537095,0.0023776795367752837,104.6217279201412,-0.0009395453540445692,-0.0016940092432643303,-0.0012786586611482195,,,,
1.58,0.006128612007264353,0.005745852765467338,104.57832843585116,-0.0006282508834343535,0.0006821003367175018,0.0007126395063704534,95056.90091968715,,,
1.59,0.0013364197026646222,-0.0036103495885487272,104.49256561416686,-0.0006074282572332968,-3.897173906954473e-05,0.0008248465238881108,,,,
1.6,-0.005198069362097541,0.002181480091664405,104.39885881663922,0.001222154018730668,-0.00045887673329345736,-0.0010099025732448086,95017.60425094953,33.4986423036398,-99.33763670652166,541.3593539310199
1.61,-0.0014854336132188802,-0.002367501963681894,104.24052430943144,0.0004244097662562185,0.0001577356423010104,-7.260891194978193e-05,,,,
1.62,0.008645768254188026,0.0007816244915998747,104.07831325496764,-0.00013242486441806777,-9.752564916381542e-06,-0.0008407521087784529,94980.74266113612,,,
1.6300000000000001,-0.004849266391961049,-0.0007757428929892306,103.87837350954297,-0.00024107851825220055,-9.728929579760056e-05,0.0005349974750117619,,,,
1.6400000000000001,0.0006549270854465234,0.00046963925682035165,103.67516967388269,-0.00016639827321751434,-0.0005683885925527496,0.0022210032518939007,94942.2433141863,,,
1.6500000000000001,-0.0002120922303831047,0.004066717787443047,103.48558797602504,0.0008524184476734692,0.0016832348541472512,-0.0005834177067862666,,,,
1.6600000000000001,0.0009865842191746992,-0.0006605214392532422,103.2859075474471,-0.0009370168371856069,0.0003210583980322006,0.000496493392191204,94902.90178520662,,,
1.67,-0.002222652773193934,-0.0043418621926766135,103.11330221718543,0.0001500930720241106,-0.001590403520578408,0.0009711972926987407,,,,
1.68,0.00022915136453008665,0.0025965258953351677,102.93095563053622,9.258857773705584e-06,0.0020613308246455737,0.0008287817688530022,94863.15524655065,,,
1.69,0.0006765749405760284,-0.007045186609815213,102.76365728910906,-9.107632762280776e-05,0.00038475563436070413,-0.0001755280202824535,,,,
1.7,0.0024420154259477377,0.0009699268788838357,102.60398005859705,0.0005909348810399284,-3.520350529961684e-05,0.001364960164797937,94822.88277206452,33.498630415913006,-99.33761111437632,557.7710679974285
1.71,0.0051369448275941,-0.002260971180654121,102.4462407061609,-0.00212262050952492,-0.0008054950237451576,-0.00018554406551223984,,,,
1.72,-0.0029532126569747222,0.004135485243984943,102.27261610254514,-0.0006757805233352286,0.0013084470447404563,0.00047603415790672303,94783.0027603354,,,
1.73,0.00011027351891213885,-0.003088024156725597,102.12191478798708,0.0007894507022702564,-0.0011877803821516637,-0.000506979452679419,,,,
1.74,-0.0002720479590229012,0.0030397169704181833,101.95937857387777,-0.00019791987509966668,0.0010225563644134252,7.306272605867164e-05,94739.33519759585,,,
1.75,0.0018812038797006042,-0.004257933531532904,101.82239922292513,-0.00020291796598848267,-0.001369793101515753,0.0029526436200546517,,,,
1.76,-0.0021381437453920882,0.0012042490248324708,101.6827637671736,3.610277937257981e-05,0.0009491796164843313,0.0014533805701995408,94700.31565746396,,,
1.77,-0.00033717132896584625,-0.0017366778321166372,101.56372752601165,0.0013668656046809339,-6.509915446698538e-05,-0.00013858218576359095,,,,
1.78,0.0036102288667487397,-0.0037911310824821852,101.45317248027061,0.0002042283179724994,0.001562594654307918,0.0008005560067002567,94656.55971232208,,,
1.79,6.769157781950406e-05,0.0030154794772081204,101.35233630041837,0.001789097205345783,-0.002027380472170653,-9.06033149554985e-05,,,,
1.8,-0.001658062034693827,0.0003711336858947016,101.2543570094281,-0.0018502416560876463,-1.9138790971910147e-06,0.0004301506042896166,94614.58614296613,33.49861651561247,-99.33762992788239,576.4535374544246
1.81,-0.00013987124127852184,0.0008824020353406289,101.1441889175073,0.000849532376798621,-0.0006401377423071179,0.0012147885430488694,,,,
1.82,-0.0002467879266195563,-0.002679823891280703,101.03654800300407,0.0008709755298416976,-0.0011977898976049096,0.00013011069349175874,94570.5826157016,,,
1.83,0.0018877434511862243,0.0019979566108489838,100.88826890596572,-0.0008448956129446806,0.00023062313236864245,0.0007313758440461487,,,,
1.84,0.0035900853765190115,0.0005374774537697164,100.72190610440958,-0.0009047190877097402,-0.00010442396845660575,0.001818179754181552,94526.94271045808,,,
1.85,0.0004123351651704727,0.002647898326049864,100.50385139863931,5.1808879165870315e-05,0.0019919776519453317,-0.0008734299434792234,,,,
1.86,-0.0021166774990887143,-0.0021857362960791453,100.27170671203099,-0.0009667357328776455,0.0012376485655545173,-0.000721512122565018,94483.47742935733,,,
1.87,0.0020121436213748124,0.0012854634876702852,99.98002253876594,-0.000568000277585113,0.000795261867461672,-0.0003529469297750432,,,,
1.8800000000000001,-0.0005011377246851456,-0.00021715390430445474,99.68381123882405,0.0011997609234915803,-0.0006487692509236616,0.00026195926404258936,94437.97160823621,,,
1.8900000000000001,0.003021982459457732,-0.004796742798898185,99.36550256171505,-5.86154037208169e-05,-0.0006572796159084992,-0.0002714094889057357,,,,
1.9000000000000001,0.0010944387508503774,0.004963989480552553,99.03291924867727,-0.0020146725373734803,0.00046505952300811195,-0.0003564724994313662,94392.66129117654,33.498613412897924,-99.33759577671415,591.840056776167
1.9100000000000001,0.004113058398798424,-0.0016025983511812943,98.69088592617211,0.0007365834963020684,-0.0009461898729433729,0.0011622617998853974,,,,
1.92,-0.0050761314205274395,0.0029845975060220228,98.34233605569925,0.0003149522409939779,-0.0009110620830444222,-0.0016952163792012852,94346.21428270024,,,
1.93,0.0018681467154676365,-0.002325628472990045,98.013020054445,0.0015482942004596443,-0.0013615006646090634,0.0017236682321823886,,,,
1.94,0.0026504986289382815,0.0010838657548535298,97.68706021706721,0.0005302159550032346,0.00010202743011843504,-0.0013752878491075024,94300.82272226903,,,
1.95,0.0010941799240760536,0.00020141371990120823,97.37015533273924,0.0011204044315132236,-0.0004321432140347975,-0.0007501094585999558,,,,
1.96,0.002226462366222405,-0.003513732215880784,97.04298562592767,0.0026262695474470743,-0.0010665846678271592,0.0015815822230619227,94256.34149205539,,,
1.97,-0.0010565099851722168,-0.0008419016087878115,96.6870436204094,0.00034148266380561355,-0.0008625185910710347,0.0017171234498455808,,,,
1.98,-0.0020784365877263233,-0.002296946714010998,96.32697302461175,0.0007176632721155052,0.00014764960381511428,0.0004864740692162569,94207.90004335014,,,
1.99,-0.002373056115869407,-0.005853286258309492,95.94968417242546,-0.000425673167717389,-0.00022368172834563631,0.0005274416130514834,,,,
2.0,0.0037464257039868266,-0.0007542032975813,95.57088555534182,-0.0002689634649002316,-0.0015822806880840088,0.00019092720847907084,94158.2007266345,33.498648708096816,-99.33766712698613,617.189136165089
2.0100000000000002,0.000917730616351538,-0.003742709473904451,95.16491384097296,0.0013602219611947761,0.00017329921206490315,0.00038379936234194317,,,,
2.02,-0.0005216121357191828,-0.0019254281909557409,94.76057076537275,-0.0008476124302688436,-0.0018034564813758486,-0.00016853117635425057,94112.62588033496,,,
2.0300000000000002,-0.003682270592777189,-0.0013001396327502364,94.33331970384329,0.0008184847561334761,-5.736594620558464e-05,0.0007128020897721902,,,,
2.04,0.0003053624185573201,0.0024635340356459327,93.89059447237538,0.000526441363949209,-0.00021640596254404414,-0.00032478599365769,94065.6657879935,,,
2.05,-0.005138277852313078,0.0007226436296251649,93.35688512466884,-0.0002960555534440913,9.348435729400566e-05,0.00013370940043204918,,,,
2.06,-0.0019440822349801885,0.0016188972154208444,92.82680467372359,0.0006871598188977934,-0.0006154712223866422,0.0016760852602241035,94015.1580855673,,,
2.07,-0.0013034207923017472,0.003373643900375984,92.19093959515924,0.0009499195510470275,0.0009542414474480975,-0.0006479159318525093,,,,
2.08,-0.0012978055070831992,0.002979425756851114,91.55471534940335,0.00015779664319396725,-0.001611895358709053,-0.001015755486615295,93965.2510011729,,,
2.09,0.0026949255740045626,-0.0035072419284967217,90.86388907934307,-0.0005882456833006947,-0.0009442890564881136,0.0012688781782850833,,,,
2.1,0.002520728777835913,0.0028921373734982687,90.15825335064959,0.00138921595180019,-0.0018025598506975782,-0.0008199658134564365,93915.61667207819,33.4986448576827,-99.3375832566006,638.052497165661
2.11,0.0016325286500658135,-0.004565929498011223,89.4265604370066,0.00022014781518952747,-0.0009819136333925193,-0.001482486900883507,,,,
2.12,-0.0053316400334987605,-0.003858287101055984,88.69075739548599,-0.0003925869160300603,0.0006844802501858948,0.0011025460350015392,93867.62467977779,,,
2.13,-0.004709940085800867,-0.0012974689321676226,87.97706286497827,0.0009493466025206526,8.15584252470184e-05,-0.001575933125837044,,,,
2.14,0.0012694711319370653,-0.0019067646056926833,87.26468601478417,0.0008471358854475557,-5.956979375324141e-05,0.0002898816942249338,93814.42661246275,,,
2.15,-0.0034193623809425228,0.00353754747204619,86.60104238292153,0.001565506919447605,0.001588352836835025,-5.053143568941768e-05,,,,
2.16,-0.00124661702622396,0.0002709769676397466,85.96005380944462,0.000519814353797289,0.00010771094680749095,-0.0015645546223831052,93764.4079051324,,,
2.17,0.0013797509912246311,-0.000902640429960233,85.3415531660251,-0.0017734001449031566,-0.00035571381454420684,-0.0012067793759927442,,,,
2.18,0.00027902216210650804,0.001079020634898156,84.71817209640784,-0.0018220678660982297,0.0007687809545910007,0.000975055066806461,93712.55540055603,,,
2.19,0.0002995623488504257,-0.0027563098344259057,84.10409661449067,0.0009914939488921374,-0.0009396388014778749,0.001452132103644057,,,,
2.2,0.001294154641904559,0.002865897054986642,83.49756202309122,0.0010000268615500902,-0.0016595732727600599,0.0004234184213490751,93660.19700696217,33.49858545944051,-99.33755421693061,655.2954877290956
2.21,-0.002146600795000734,0.00030970656896726727,82.90831255354563,0.0002498759235538784,0.0005440760750058645,0.0005489688829511315,,,,
2.22,0.003579564013173861,-0.0027786265586157476,82.32202320169044,-0.0008386701265468337,0.0016592985294344217,-0.0016345215039193074,93609.24833653921,,,
2.23,-0.005390663996967014,-0.0033596167393839392,81.74553303694266,-0.00014001017051282357,-0.0006199178992129042,-0.0014682269395154273,,,,
2.24,-0.0029507841665797597,0.004557645218962932,81.16609694722575,0.0012276913508147316,-0.00044610856603527217,0.0006766860714794439,93555.40939590089,,,
2.25,-0.0014790582232195866,-0.0004693658018684671,80.60548003319742,-3.893140738421481e-05,0.0007108975206615187,-0.00017827732044437821,,,,
2.2600000000000002,-0.0018329631675728434,-0.002016218225880724,80.04887803481111,0.0005305964508431066,-0.00120553577763432,0.0009261068682566772,93502.74550877063,,,
2.27,-0.00045514518442768396,0.002396319963562899,79.54108079198495,-0.0007949023579392958,0.0009067016220895235,0.0009060857462708093,,,,
2.2800000000000002,0.0024634225506127865,-0.0031188280903699478,79.04493913934762,0.0019162554998538896,0.0013223853048308857,-0.0005505780562199135,93448.90298283644,,,
2.29,-0.004172442251828352,-0.0009761715176139237,78.60451266228701,-0.001343348034486835,0.00040857453921540663,-0.001309004123051929,,,,
2.3000000000000003,-0.00209026592784592,0.0017939107502278626,78.16805921704871,0.0019287075407192899,-1.502415198702953e-05,-0.0006565146516955923,93395.64379261562,33.49865229058175,-99.33757600561393,678.7158317179541
2.31,0.004629980229901929,-0.004523007294849285,77.67641689496622,-0.0012912436478354067,0.0005600321564052207,-0.0015106138290833075,,,,
2.32,-0.0008764649371831475,0.005533070848477447,77.17868346767627,4.356295285773139e-05,-0.0005387657660966857,0.0002667115098868874,93340.17779151401,,,
2.33,-0.0021449937825238326,-0.006192745087721642,76.55286717950017,7.236446466528303e-05,0.001629138991107826,-0.0005673060147045362,,,,
2.34,0.0006526617355026802,-0.0037142997277353545,75.9207080891006,-0.0011077509460101765,-0.0006244882852293925,0.00034883364132597177,93287.10533538122,,,
2.35,-0.002182221540013288,0.002735855172146767,75.27785312188178,0.001313888049145274,0.00015676680693984052,0.0018293896356850515,,,,
2.36,-0.0010193235506999695,0.0027636519935212824,74.64542201066702,0.0018762403949421384,-6.448074521235053e-05,-0.0003191162416690133,93231.68145822584,,,
2.37,-0.003556782095509342,0.0017676950947653563,75.76089731594313,-0.0017824456920036856,-0.00015701992271275242,-0.00028508694761053403,,,,
2.38,-0.004963868025735568,-0.0008064864270078255,77.03578531402133,-0.00027228735104260397,-0.0005532903341299868,0.0012966300119219094,93175.74167253115,,,
2.39,0.002309272565250485,-0.0017834952326189811,76.93524436934331,4.1413520765798056e-05,0.0005226628690951794,0.0013039835520440724,,,,
2.4,-0.005047604527697767,-0.000559035089508482,76.7239254951576,-0.0004464236615234115,-0.0007530435401987061,0.001156625395284701,93120.40539349862,33.49868152182116,-99.33760243277838,706.3482122901222
2.41,-0.007286433793322528,0.0012066136327630577,73.03412347914016,0.0006662228363873625,-0.0008374485151817388,0.00031918174215990816,,,,
2.42,-0.0008724077068467121,-0.0021433200283621622,69.04140854670678,0.0008969372272066426,0.0005898707619948859,0.00020433959981689648,93064.00951777198,,,
2.43,0.00029016038727059463,-0.0021948105066474394,64.31353788714851,-0.0014545960895590044,0.0002876936637336075,-0.0021644377364397486,,,,
2.44,0.0041769565005811025,0.00011111518734257847,59.520620341974166,0.0002375426836850799,0.0021869109197288133,0.00015380110377111723,93008.30038121379,,,
2.45,0.0010524426062473661,0.0013204368195557186,52.77917442243684,-0.000524042063197283,-2.9552346112942544e-05,0.0009393401021778594,,,,
2.46,0.003102349861179726,0.0014007302862212633,45.86069851571329,-0.000961558311387955,0.0011037695435681901,-0.002104230353657244,92951.75380053798,,,
2.47,0.0019232857877648805,0.004456024197567794,40.41016825070336,-7.81604860285086e-05,-0.0009586922759623376,6.516581582337398e-05,,,,
2.48,0.004776120992811472,0.00049903875311559,35.07591109149488,0.00016761122148489387,0.0015900184995756694,0.0007368005867694315,92894.71787171428,,,
2.49,-0.006627282135316025,-0.0006374125112368069,33.2699989087583,0.0005561451191996727,0.00039092839613327323,-5.49475120157801e-06,,,,
2.5,-0.004810701550488576,0.003171882467516461,31.745685767161017,-0.0008539026839562973,-0.0013750638898637514,-0.000689294194933554,92837.15493670024,33.498602719758175,-99.33756539206804,729.9838646690903
2.5100000000000002,0.000795146254171817,0.005759571130761846,31.08479762219682,0.0002111523463240338,0.0014191936905300964,-0.0007683970517063342,,,,
2.52,-0.0003131474929072109,-0.00012417147140190217,30.489473072571926,0.0010470409403677355,-0.0005332744508767868,-0.00020391296711265105,92781.02239055283,,,
2.5300000000000002,0.005873809274898874,-0.001186617809315543,30.0768755347987,-0.0019774751790947783,0.0007105013056247812,-7.954546474933538e-06,,,,
2.54,-0.006541894143409935,-0.0011351845187102562,29.670896332259286,0.0009728242752348274,-0.001363108474607519,0.0012432312833931627,92724.69191656615,,,
2.5500000000000003,-0.001780649873331874,-0.003164401900841486,29.26189220233548,-0.0009962829229822152,-0.0012165678495817563,-8.619473025609143e-05,,,,
2.56,0.0017180786802686032,0.00517385021230689,28.856123467392763,-0.0009239785861990024,0.0007514445046137169,-0.0007704642150524483,92667.52721823603,,,
2.57,0.00307195103656442,-0.0022220944902077724,28.58869975816769,0.0006221509016146395,0.00028222525160313675,-0.00029379625539176766,,,,
2.58,0.0007435319582968065,-0.0004481286683013266,28.334570260869736,-0.00046682202541803436,-0.001281686658354413,0.0017278880610468866,92609.57177965924,,,
2.59,0.00016459771609690042,0.00015601696758605417,27.960957562182347,-0.0019080355494653436,0.00040928319566079435,0.00010377065248138507,,,,
2.6,0.0009807287167474437,0.001971689479894529,27.582567958187944,-6.899495120005127e-05,-0.00011609586458644206,-0.0001441930761660401,92550.9436853022,33.498577677124366,-99.33763797137372,762.1683619701698
2.61,0.0009662278519056257,-0.005945304575301872,27.172848092914517,0.001041703232828331,-0.0006261361060209411,0.0011645779289410512,,,,
2.62,-0.0073596728540480695,-0.002837241712845804,25.32685139860763,-0.0015594192323163374,-0.00021672893628306355,0.0007436063353825544,92493.67754970575,,,
2.63,-0.00652224949371239,-0.001278764919108558,26.38042593769265,0.0005896978473785942,-0.000407922675322139,0.0002021656639235786,,,,
2.64,-0.003689252786394628,0.004303023898071818,25.999978614164718,0.0004216783272015387,0.0015783841553866408,-0.00035655267924850537,92435.49671459993,,,
2.65,-0.000194802128579611,-0.003727221340350832,25.626919673444817,-0.0012660654370868166,8.004873435170979e-05,0.0007698775494753222,,,,
2.66,0.003405126649038198,0.0004144939450783599,25.246595186512987,0.0009076943471917976,0.001864488549207796,-0.0005357357274011545,92377.17303852338,,,
2.67,-0.000958711880534366,0.008630912069495495,24.913965367228414,0.00021765985767408362,0.0003729418095141164,0.000333324661418751,,,,
2.68,-0.0025698381226038724,0.0009275684747841774,24.589965824285386,-0.0003811574660474382,-0.0002619689684233276,0.0007155552683813953,92319.84957795872,,,
2.69,-0.00026090076171275396,-0.002832708492727277,24.288201292071633,2.258681935596046e-06,0.0007863853178786297,-0.0006911296615607108,,,,
2.7,-0.001101633279334954,0.0010306014610181945,23.999970233482866,-0.00014133581191984424,0.0005201243993241409,0.00042865948059778197,92260.68556869282,33.49861003544907,-99.33758566763707,783.417723182801
2.71,-0.0036193145850337,0.0035182222242658165,23.70597558578047,0.00023101102161791272,-0.0007038079780891715,0.0001959615510395289,,,,
2.72,0.0008892686647977801,0.00139137983297024,23.410320635598456,-0.0012239011533264968,-0.003313411736148906,0.0017047616245916258,92201.67420501856,,,
2.73,0.0017019659994223551,-0.0028221046610980515,23.113732409611924,0.0008488810132991054,-0.00017345774311198172,0.0009408488014583271,,,,
2.74,-0.0002026653636803032,0.006604041357753858,22.820000950575146,0.0018189254261024503,-0.00037633996359238584,-0.002194114205546896,92143.17452825369,,,
2.75,0.0003970683880901538,0.0008349711808226249,22.53154268439373,0.0006915079329402504,0.0008486981419183251,0.0004646069373310852,,,,
2.7600000000000002,0.005689984575506356,-0.003996336898869737,22.239318877050945,-0.0012629892176245449,0.0007138845786153359,-0.0013474048091973044,92084.9007952066,,,
2.77,0.00024162821571085293,-0.0013083133166198306,21.957624943538494,0.00013915261510546661,-0.0006218698151654336,0.00042623191745245115,,,,
2.7800000000000002,0.0025934919874399803,-0.003689108666328395,21.672999785853,0.0015532614005026538,-0.0015572396438384426,-0.00033487084169195607,92026.4850734665,,,
2.79,0.0027007170460565857,-0.00016739140587131352,21.411468748404364,0.0008555112387601194,-0.001056429322316211,-0.0003685446094613541,,,,
2.8000000000000003,0.0009546763629469765,-0.0024793132143045246,21.15515446147527,0.0007505456496257668,0.0008789002170218039,-0.0009479449698136222,91968.33671003208,33.49860512707709,-99.33760160156692,807.2853406534589
2.81,0.0019561759889423448,0.0020905008502359835,20.91325543894904,-0.000529307992512612,0.0021179471419100473,0.0020165945362080498,,,,
2.82,0.0024259789953836857,0.0015097676184292418,20.67727415984661,0.0008615803186234577,0.0015269233015625977,0.0005721220749188427,91907.38223585022,,,
2.83,-9.695688750024738e-05,-0.0005745781595420514,20.438991902610283,0.0010934805256426778,0.0003604645518989479,-0.0001841418329242154,,,,
2.84,0.0037553040513908648,-0.0002774460885433947,20.199727010655973,0.0005705894877139324,-0.0013699707573759904,-9.15957180457561e-05,91848.32718079863,,,
2.85,0.001191438056450782,0.0017518928958899856,19.995484111637545,0.0017492151503349471,0.000819689669484833,-0.0005616703549556236,,,,
2.86,0.0011966390598035456,0.0011309966872705417,19.789161938165858,-0.0005970736417167988,0.0015317293700623223,0.0015350396499008777,91788.5790774512,,,
2.87,-0.002553205925309869,0.004564823066434238,19.580210933632305,-0.0015806871024188296,0.0014304328689243736,0.002087522047684195,,,,
2.88,-0.005503917980738723,-0.0041480835537071456,19.364098056827576,-0.0006734121833096996,0.0010081953252696054,0.0018913152843381515,91731.38579154188,,,
2.89,-0.0004145358862788829,-0.0027409702722745303,19.105524588565338,-0.00027443190358204307,-0.0016386455911213378,0.0004239050949490211,,,,
2.9,-0.0021578671641111413,0.004545839784579308,18.838115358151903,0.0003416271655655213,0.0014904233041793061,-0.0014026683432826845,91672.03183944304,33.498610874666376,-99.33768253704501,841.7635492772179
2.91,-0.0020880628222584353,0.0017333483160189957,18.57971494293856,0.001050891458576463,0.00017692724175390502,-8.838097772579882e-05,,,,
2.92,0.0021964647033752577,0.0050470910580868306,18.313298327193667,-0.001658224945039678,0.0008689212025500649,0.0010271285261462303,91612.27958757522,,,
2.93,-0.0032308392057353343,-3.7364730818623686e-05,18.028835809670174,0.00045117972273454556,0.0009129330406282062,-0.0010169836090492574,,,,
2.94,0.003038275781697363,-0.0015370061228165296,17.740911202161335,0.0009412233564522353,0.000881308901927677,-0.00013831571454524648,91552.63096427711,,,
2.95,-0.0006462920899895946,-0.0016665362191988092,17.419954248163997,-1.6457668455878847e-05,0.0003048832101137277,0.0013381274115683037,,,,
2.96,0.001677472014504125,0.003265195395261567,17.104847281621517,0.00046115866181635387,-0.0008803308826928661,-0.000971370799769592,91492.99966427748,,,
2.97,0.0008588670748339987,-0.0027318129564882832,16.786324338304283,-0.001120496789862847,-0.0017467888567343221,0.0014984538164649328,,,,
2.98,-0.0054745969359572015,-0.0018747331582880408,16.46114996951904,-0.0004636930345160751,0.0002646756905748194,0.0009630300877999493,91433.27397672416,,,
2.99,0.0030038235669753582,-0.004896061817377334,16.136176542689192,0.0008238465799767158,0.0007229531556805985,-1.8497974191058676e-05,,,,
3.0,-0.007204091160072575,-0.0011065680512528455,15.801462126991265,-0.002483498647048253,-0.00025429562480092685,-0.0010872547553006668,91373.59921667444,33.49863847039111,-99.33754372758582,867.2419121214716
3.0100000000000002,0.0008519303537842922,0.0008152260275076064,15.471555699860343,-0.0006274793440107417,0.0014308099905020629,-0.0009540159692513091,,,,
3.02,0.0008231757011585106,-0.0029590349592531775,15.14281675181896,0.0005287371937687418,0.0019221355442110052,0.0018776838145196566,91313.77513940063,,,
3.0300000000000002,0.00289932997592793,0.0019728637093650698,14.819835614260503,-0.0008424583229272325,-0.0004990522737250548,0.001710605014044476,,,,
3.04,0.004934440262036137,-0.0028054051256573846,14.497459070530407,-0.001512765041705187,0.0011830750080643521,0.001285580772083462,91253.4334100966,,,
3.0500000000000003,-0.0021754809125259554,0.0016954507832439196,14.195950505885419,0.0019334682663760387,-0.0007224709967243633,-6.193983900934112e-05,,,,
3.06,-0.00544592751338379,-0.003848597744198414,13.896656865012972,0.0016734747578405849,0.0005109679785064943,0.0001532260332400801,91193.58553691697,,,
3.0700000000000003,0.001230073536681464,0.004460386564803944,13.602117267111593,0.0013315837349075158,-0.00020016136258230977,0.0006624013523340604,,,,
3.08,0.001887796251182886,-0.000254002719812572,13.307902680356948,-0.0002055007055384021,0.0017089710887332006,-0.0013995836076202489,91134.39530004103,,,
3.09,0.006979226015170756,0.0008992657309730393,13.00655062400128,-0.0016071700214783842,0.001263644490237213,0.000461043261519935,,,,
3.1,-0.000899885031359005,0.0021716125846624845,12.721558464321731,6.12311340625337e-05,-0.0008165287550972164,0.0020641843941089024,91073.75348094346,33.49860052069397,-99.33763144816758,888.5080270362981
3.11,-0.002212245541061917,0.0011851920111564558,12.463752178117394,0.0004020281204358399,-0.0012688049247928715,-0.0009879744116024576,,,,
3.12,0.0012812181127274376,0.001757618686482736,12.216607063903696,0.0023722248731109113,0.0007327038535141126,0.0003418474565292812,91013.11790309877,,,
3.13,0.004427209049882095,-0.003751015064730974,12.010619509940051,-0.0016719743769261855,-0.000837902669221475,0.0019353946836817158,,,,
3.14,-0.0014823468646584465,0.0014532900797511554,11.804802136677349,0.0012807766939392107,0.0007845863146070364,-0.0005027008310929858,90951.83138731297,,,
3.15,0.004225453260934443,-0.0036398815492519414,11.619982938702725,0.00025158288858000713,-0.0006477131256280522,-0.0006164625634559435,,,,
3.16,-0.0010906636119728413,0.0016658924891881249,11.433828747432166,0.003466246951771048,-0.001338548801530612,-0.0006389271921943923,90892.81571278253,,,
3.17,-0.002174349712531139,-0.002967172314190107,11.242453420124068,-0.00040023134735707997,-0.0014704316890706568,-0.0013092471344080092,,,,
3.18,0.0007913796247843594,0.0079163146468588,11.057459558245036,-0.0016367873251321877,0.0009360866692570788,-0.0005561740931214587,90831.68132930607,,,
3.19,-0.0015439775176551084,0.0010384549467857074,10.837431372466432,-0.0015183338766190048,0.0008296156090421734,0.0014394204769064363,,,,
3.2,0.002898413704980366,-0.005294180227405599,10.613746094104902,0.0004131541807910905,-0.0008126403764265983,-0.00026960994816100373,90772.34742412892,33.49862541109386,-99.33763196169011,909.8157673831956
3.21,-0.001335858349261025,0.004374573886371029,10.338797132806663,-0.0007163487349925847,0.0005137874212371642,0.0006008981807285799,,,,
3.22,0.005870893822413608,-0.0008653583467050707,10.058006957285764,0.0007118748097964317,-0.001750089941202997,0.0013911387165935376,90711.71541509024,,,
3.23,0.0036629029017859454,-0.006239869550085358,9.68222037334156,-0.0016944194707474256,-0.0004893188091088818,0.0007916779840659199,,,,
3.24,0.0018100933992649731,-0.0006140654744302918,9.30053928874414,8.531429663440553e-05,-0.0002702885484940668,0.0007829280819999821,90649.97505411028,,,
3.25,-0.0003040049186027142,-0.005370039202199469,8.794349389823811,-0.00021800463174870437,-6.877221510535203e-05,-0.0011467464194289977,,,,
3.2600000000000002,-0.0016702802031463824,-0.0040187300092340205,8.284975947612134,0.0005655733514287645,0.0005511161409509194,-0.0018555967696181283,90589.41437633095,,,
3.27,-0.0020871672575858264,-0.00025573252733042775,7.740645397256867,-0.0005342728909677601,-3.9705987450989974e-05,0.0013194901450071677,,,,
3.2800000000000002,-0.0020782103427625822,0.0020916751903757845,7.192465512477238,0.0013951418500691485,0.0005945157859514283,0.0003211305342244005,90531.3613511704,,,
3.29,0.0020099741183849853,-0.002102808468508215,6.598836734578132,0.00033575432347458095,-0.0006326916143569555,-0.000481010270072567,,,,
3.3000000000000003,-0.0004583241249200068,0.002508509581105771,6.0101216041644125,-0.0008593983337821278,0.0006746615844238338,0.0005207953837103907,90469.92933842805,33.49862378504563,-99.33759935424193,954.1916154121777
3.31,0.0026228093662280976,0.00014445441168447294,5.389367488168471,-0.0007750268091495612,0.001172029668159287,-0.0009437820963344557,,,,
3.3200000000000003,0.0009608127853290802,0.0026230218198864536,4.776453378837134,-0.0002701638496937033,0.0017681268105741532,0.0007768082837581843,90407.80828019562,,,
3.33,-0.0024569010910446176,-0.00304248631198198,4.092781398881319,0.0004413981324867923,0.0007149434040500323,-0.0006773513631145163,,,,
3.34,0.0018322316143956348,0.004619662184855186,3.4014360963509955,-0.001589394492954559,-0.0003946031443584929,-0.0010387903478854825,90347.49982724979,,,
3.35,-0.004451194260357225,-0.0008828714587690074,2.5136375727637716,0.0012938549621364192,-0.001315162066297777,-0.0003539234315965749,,,,
3.36,0.0008939040846704066,0.0014650896223297617,1.6000946713624347,-0.0002677241129814776,-0.0001637589940420191,0.0008944889191387076,90288.22001395441,,,
3.37,0.0004827513031459305,-0.00703765100814693,0.4463590515454806,-0.0013585683864297182,0.000735930643308491,8.289084052830267e-05,,,,
3.38,0.005450591758433129,-4.580119412472991e-05,-0.7237936869469791,-0.00037805544632573676,-9.396747060058025e-06,0.0008888107850237202,90227.02238100918,,,
3.39,-0.0010221824630520444,-0.0014926976188984406,-2.118942675774698,-0.00042016176421200304,-0.00022716932445492765,-0.0007414968324112255,,,,
3.4,0.0019128326624601722,-0.003955924551311639,-3.533250440142091,0.00017389512473632988,-0.00036661520734021654,-0.0005969122781807176,90165.03265130798,33.49858297970754,-99.33762826264508,967.5990517824944
3.41,0.0003784690186348744,0.0005177887056607837,-5.046385975092213,-0.0017938954352342362,0.0004047765222312687,0.0009314413985182082,,,,
3.42,0.0023235151181862225,-0.0023259592150747877,-6.568841248801086,0.0016567043085301213,0.0013311775778160385,0.0010763516653844772,90106.36090587032,,,
3.43,0.0019723475495133434,-0.003300870224608486,-8.021171030520506,9.438493112297154e-05,0.00032478006892108297,0.000213362897343791,,,,
3.44,-0.006639618089150152,-0.00941221921103075,-9.468184734994397,0.0014472689701731064,-0.00027598479286165535,0.0012118434875962873,90044.55217601778,,,
3.45,-0.0003681424090615585,0.005414423117855691,-10.7657049213261,0.00046253841526657755,-0.0018428276349846894,0.0005830905761313616,,,,
3.46,0.0027376295739078207,0.0036390752061039463,-12.040566948882693,-0.0007338383407425278,-0.00037337959564897553,0.0008091494338624564,89984.43237981174,,,
3.47,0.0013319769658629243,8.931446092631485e-05,-13.166786420628851,0.0004917834113739996,0.0007376198468851432,0.0004781828979672697,,,,
3.48,-0.004556889850086528,0.0006080461118327463,-14.268707338229659,0.0006052577080014353,-0.0006708199885108805,0.0016255739379489524,89924.11186982214,,,
3.49,0.0043980866822413015,-0.002952045078211925,-15.229515682924315,0.0005303304934912708,1.5926219037788476e-05,0.0016336386924320026,,,,
3.5,-0.0023387713636478682,0.0007549232739255689,-16.17117006250631,-0.0006107915319018057,-0.00019838712397323802,-0.0007574231821910785,89863.63559026881,33.49859636259823,-99.33759649255501,1007.7658093018993
3.5100000000000002,-0.0026775636833266483,0.0054303941519187925,-17.03927234524969,-0.0008505656662186385,0.0010615420148308294,-0.0012170761549754826,,,,
3.52,0.0020483967911601574,0.004367293455540595,-17.910568345648848,-0.0012844944393649589,0.0010605711004567473,0.001846225127125564,89802.79065184515,,,
3.5300000000000002,0.001513650264038946,0.0013811276017651809,-18.76223234143828,0.0015964346196417594,-0.0005008058987221659,-0.0008115141310582317,,,,
3.54,0.0007485674463784644,-0.0038513306950816494,-19.599422306688563,-0.0014226347235564772,-0.0009425694555737889,-0.000557230863452741,89741.99562573699,,,
3.5500000000000003,0.0038194810201105708,0.0017077772474008886,-20.367116862284426,-0.0006968604137592308,8.77656393589998e-05,-0.0017404587880377907,,,,
3.56,-0.00013108319559276127,-0.002012796435299131,-21.13076170570974,-0.0009165281919322383,0.0019412233544520313,0.001131061978256063,89681.94442821527,,,
3.5700000000000003,-0.0006461106231126701,0.005613999103874255,-21.900792049966345,0.0002944035577145788,-0.001682082065995319,1.1828640975514603e-05,,,,
3.58,-0.00012945456222978566,-0.0010540073744397531,-22.670668418831585,-0.0004789487224814305,0.0005389513272999025,-0.002173669775331404,89621.49321272517,,,
3.59,0.0020375257792049914,-0.0016445938132206863,-23.159179655037743,0.0014330691459564246,-0.0012720209516488743,-3.984900994402643e-05,,,,
3.6,-0.0007928185021359695,0.0025409334172815227,-23.619843482785182,0.0013991095781081895,-0.0005480445244879457,-0.0010783527290307996,89561.9346134867,33.4985967336,-99.33758648102904,1019.5006445498184
3.61,-0.0027671757588293663,0.0037775209900916106,-24.087610014914997,-0.0018559459375613978,-0.0008046498402462139,0.0004964639646872676,,,,
3.62,0.0014102271489673372,-0.00456870741578572,-24.54688632190489,-0.0008936879357623406,0.001281493972634025,0.0001554141217508537,89501.9014252129,,,
3.63,0.00011622970960131518,0.0010888857556951201,-25.190368912014115,-0.0003943567427202645,-0.0003305368892608634,-0.00021062903027034243,,,,
3.64,-0.0035031315992194605,0.0029902267189704274,-25.857270310233776,-0.001525390717266378,0.0014853597054220265,-0.0004176116609933084,89443.49836104363,,,
3.65,0.002733914497253722,-0.003913047945168024,-26.485477169780353,0.00127214723252914,0.000928007117550985,0.0003822035426089663,,,,
3.66,0.0021287855470194864,-0.0015745429758802331,-27.11120020476562,-7.229951659116983e-05,-0.0009357443896278355,-6.767420120411448e-05,89381.4717215628,,,
3.67,-0.0019005790216521158,0.0005483685369132499,-27.971590165677377,-0.001172989964757762,0.0012528201267378337,-0.0011276309125689285,,,,
3.68,-0.0020368248721517614,-0.005438042200620904,-28.840098793771016,0.0015039625923523722,0.0003837035312961254,-0.0010603517808861422,89321.58347506596,,,
3.69,0.002629325700092778,-0.0036681575185520707,-29.62387510756332,0.00034524611338100484,-0.0014814004433142166,0.0010677952777174739,,,,
3.7,0.0006292311075561679,-0.002118395706941792,-30.40308797818971,-0.00018829312331926172,-0.00018241781819901064,-0.0005121326084445597,89262.53564353545,33.49866446420664,-99.33759115626007,1056.456989596922
3.71,-0.0044438310924632095,-0.0016035887176851778,-30.8992310730271,-0.0021817317215060577,-0.0011344385806498951,0.0011361463339964709,,,,
3.72,0.0009701557691473732,0.0008618443788579883,-31.379435326955633,0.0007162956578240074,-0.0023915641040573392,-5.1894928815327e-05,89203.97810860442,,,
3.73,0.0017875714404543832,0.0014333673101752683,-31.78250556607482,-0.0009343117261190314,0.001000191156795845,0.0005454161639370941,,,,
3.74,0.0023985596215962105,0.004017828219588019,-32.17490476419247,-0.0008785744968066815,0.00017943347536171592,-0.0014131560692570908,89143.26637638207,,,
3.75,-0.0031703392873752042,-0.00047853649629418956,-32.497419587612356,-0.0009518629267592906,0.0005357123988560089,-0.0006370041456317792,,,,
3.7600000000000002,-0.004678686452675834,0.0002946325534238015,-32.81128450633069,-0.00012105546757042228,-0.0005120552522573088,0.0004636115268045995,89085.38774419302,,,
3.77,0.005886548618709817,-0.002059828300575316,-33.06631501097714,0.00011613937823586757,-0.0001309751954108844,-0.0005948440364560064,,,,
3.7800000000000002,0.0006754482418141555,0.0002575790944113556,-33.31014941716856,0.0008150975133062704,0.001725195139012915,-0.0002804529428349787,89027.20193697569,,,
3.79,0.0007018719667307972,0.0025233423760360417,-33.50655522591082,0.00011587628625248904,-2.2973432428292266e-05,0.0015006597444148135,,,,
3.8000000000000003,0.0017038889785386346,0.002670370886454566,-33.691384225412286,0.0009599006397175144,-3.536101808157337e-05,-0.000480388407437712,88967.90889121294,33.49863004741485,-99.33760597546174,1082.633916228063
3.81,-0.0022391013129204156,-0.003362038596875005,-33.81833339781856,0.0004335715207779992,-0.0005045720722369629,-0.000288903855613598,,,,
3.8200000000000003,-0.0018607324743349818,0.0021415179097893926,-33.93549454924042,0.0010688440503866222,9.7712637538079e-05,-0.000708973782805409,88909.23056908202,,,
3.83,0.0019711307647663746,-0.0004725135710272128,-34.00556107500358,-0.0019238696045222573,0.0007136703394608959,0.001108033969369818,,,,
3.84,-0.002971742870637983,0.002445872520626283,-34.07001115814018,-0.0010479602934789667,-0.0010560435531473556,1.7424291892668745e-05,88849.04311239233,,,
3.85,0.006165297166191072,-0.0007597038056477844,-34.10517385353523,7.653340507274749e-05,0.0005718319833125495,0.0014364728398740107,,,,
3.86,-0.004927426409936661,-0.0007361714599988749,-34.136096159379825,0.0009612370547848243,0.00028806298919392546,0.0016949057268714207,88790.51447415026,,,
3.87,0.0008499249001256973,-0.003817521244271928,-34.18435085556936,0.00048125833422705394,-0.0005262161570056702,8.511335844868486e-05,,,,
3.88,0.0009630743373084967,0.005355146620827844,-34.23536986028009,0.0014172359619903552,-0.0006873585807059332,0.0024633436427678322,88732.82262170773,,,
3.89,-5.8336835653435615e-05,0.0008316069737239993,-34.28418517525032,-0.00016450045663154468,-0.0018993901121288873,-0.0009122398583657184,,,,
3.9,-0.000600356532169304,0.0018636807797704756,-34.335255847991164,4.243236107450982e-06,0.00023852258184846645,-0.0011029585366622507,88675.11969715534,33.49861954568787,-99.3376418398554,1102.616523536473
3.91,0.0009324552507575441,0.007918670450287416,-34.661411373717364,-0.000951854805945239,0.0005715031280435106,-0.0007317605595524969,,,,
3.92,-0.0022062166427132407,-0.0032590653513933417,-34.626708104352666,0.0003820360424143283,0.003256175321673607,0.00146648266317822,88617.7995371418,,,
3.93,-0.0015370367739751568,-0.0029627726123899524,-34.596991322204424,0.0011190036596826281,5.944158237576658e-05,0.0006240114838918988,,,,
3.94,-0.0025389908548951188,0.0040892504387807565,-34.551985129212284,0.00038425769978860905,-0.0003045619280487215,5.087920935905616e-05,88557.95628520465,,,
3.95,0.0006670220283868493,0.002939229158645191,-34.515523914400504,0.0004808497331047392,-0.0005082888463706461,0.001450585386860945,,,,
3.96,-0.00048671881993246814,0.0006951917127625972,-34.475435841054185,-0.0007217716345547887,0.00014830013496007813,0.0004351571202172518,88501.16510254987,,,
3.97,0.0011796971737562643,0.00536308031539242,-34.44280717563533,0.00039608869327099606,0.000759110522929122,0.0006822232360206947,,,,
3.98,-0.00686499232228656,-0.008601580454199037,-34.41036756153763,-0.0005828001998120394,0.0013289296524378255,0.0008039727592301042,88444.42675828903,,,
3.99,0.002513411280342195,0.0044036908156501265,-34.372321161259286,-0.000710914694079531,-0.00026026845889792473,-0.0018702865572259829,,,,
4.0,0.004869786659163386,-0.0008870364976288203,-34.3304608474355,0.0003655859446050208,-0.0008847185854339569,0.0011192428261606237,88385.86800877859,33.49867017951695,-99.33759906926522,1140.2800780582595
4.01,-0.005100577546598179,0.0028711979874973628,-34.28581145707396,-2.8295329481766485e-05,-0.0018085621362411534,0.00044478668471244025,,,,
4.0200000000000005,0.0020696787614739934,-0.002817871055346976,-34.26382043855857,0.002625541838845427,0.0010352378933939804,0.0009786596047680284,88328.1712918472,,,
4.03,0.001393555544529749,0.006174576041675903,-34.22256578302647,-0.0009183362108938937,0.002083644597334983,-0.003008387846002005,,,,
4.04,0.0020506770611457437,0.00014272787875133487,-34.18788557492467,-0.0014286588613817133,9.817655761971389e-05,0.0014438198659734221,88271.81557673341,,,
4.05,-0.0017966806992713016,0.001619546167997416,-34.14952787340526,-0.0009218249878121513,0.0014930428750511778,0.00020184496355679597,,,,
4.0600000000000005,-0.003020950372083702,-0.00252191444233463,-34.10903714901354,0.002856893074399405,-0.0012036575433427212,-0.0008185142192207585,88215.95574937873,,,
4.07,0.0020914317744570336,0.0010112857585253684,-34.07309355465184,-5.271956267439446e-05,-0.00011062905931075355,-0.0014613798991205604,,,,
4.08,-0.0044435394698228575,0.0004415265999502746,-34.04248856926767,-0.00029336018126477814,0.001504204565702319,8.776961690010121e-05,88157.49090170157,,,
4.09,-0.0007732387624303547,-0.0018351893682214766,-34.00160206853866,-0.0011092942273061,0.0006387160644828466,-0.0005772774586700631,,,,
4.1,0.0008229743014480465,-0.0008364426957327226,-33.96460990447475,-0.0004200675268527906,0.000904349685261348,-0.0005447566764135908,88101.15121286956,33.49867223435777,-99.33757762633952,1163.3085296463335
4.11,-0.0012283579870310509,0.0012411735108652836,-33.93259001553089,0.00012469284447871667,-0.00142702982435702,-0.001184662214812931,,,,
4.12,0.0033969688583734077,-0.004516955042661584,-33.89833709831354,7.101678959678046e-05,-0.00017863711739876073,-0.0004972142458507087,88044.31334742405,,,
4.13,-0.001370134660368754,-0.0007917941457023387,-33.86197689203956,-0.0006073905033998758,-0.0007415301750965043,0.0007669589913135702,,,,
4.14,-0.000491568882078568,-0.0031201123044758976,-33.828474055937114,-0.00016798033186869035,-0.00017763903822752946,-0.001120963128761936,87987.16282942893,,,
4.15,0.0006413753615407049,-0.003071504389539384,-33.781472169571,-0.0001127713750535555,0.000642240385270191,0.00035846110174162106,,,,
4.16,-0.0029895725239257958,-0.002704380951246777,-33.74846678032919,-0.000528979958221839,0.00015758038551552572,-0.000421260643716297,87931.5824030926,,,
4.17,-0.0019002423954817193,0.003925112959617064,-33.71297168411345,-0.0009389590733928871,-0.0007916978278322914,0.0005609549065892231,,,,
4.18,-0.001746612789647455,0.006732608953066756,-33.68048427742409,-0.0004063292274542435,0.0017029024536987156,-8.520839463712691e-06,87876.54138285939,,,
4.19,-0.0018021416153803137,0.002011541611933146,-33.63932133759556,0.0011771820537054968,-0.0013948323145389556,0.00037399869830901544,,,,
4.2,-0.0027417557784470887,-0.0005525169412005179,-33.60976319717765,0.00034045833797921094,-0.0005631703690411353,0.002419343272366704,87818.47884548182,33.49865531031589,-99.33758443623192,1195.4018602997417
4.21,0.00011665921317009306,-0.0015056112206724161,-33.578029874126734,-0.0018507090782077346,-0.002128033398352889,-7.138358126640196e-06,,,,
4.22,-0.002250960398624396,-0.00010499903881959254,-33.54251251265825,0.0009506913651985049,-9.583473994097052e-06,0.0018492051058239835,87762.9232799987,,,
4.23,0.004262401162523834,-0.0015340583625484735,-33.50617105375722,-1.7628006135016656e-05,0.0014976928569433068,0.0009867945643061168,,,,
4.24,0.0032454644686364118,-0.0024423403825647814,-33.47511683587749,-0.0011926024174206083,0.0004984211657356502,6.149869371204197e-06,87707.25922573078,,,
4.25,-0.0009918013139233394,-0.0003064914116219882,-33.4364518678387,0.0011058197309373287,-0.0016594647218006163,-0.0001328065007295044,,,,
4.26,-0.0003370998546616691,-0.0006067452395477229,-33.4052767732168,0.0009207166211487856,-0.002010657210469284,0.0019035964357895388,87651.6930539159,,,
4.2700000000000005,-0.0008307941604921822,-0.004729955272182985,-33.36393214445607,-0.00025780577961033137,-0.0003020292022784776,0.0013215411430532824,,,,
4.28,0.004409710975817877,0.0013938446026705443,-33.33505020997715,-0.0011419842298791892,-0.00011158918718999737,-5.764737932439465e-05,87595.48186860362,,,
4.29,3.4022915401448104e-05,-0.0011304234347654437,-33.30002636591368,-0.00022916668616820244,0.0010007405277212386,0.0005894911430333211,,,,
4.3,-0.003389672871020194,0.003169339914744674,-33.26714641188855,0.0013560577141075352,-0.00039085162534160944,0.0003182897357654617,87541.4793910648,33.49861806443029,-99.337598259528,1210.953339508833
4.3100000000000005,-0.001229398043246848,0.0016888847050456673,-33.23052688089033,0.001014645684444161,8.089161369457524e-05,0.00070549031170481,,,,
4.32,0.0012882725836240966,-0.0009041306307923599,-33.1926148797007,-0.0005983285760774182,-0.0014384116903145207,0.00025774917240493965,87484.55315020407,,,
4.33,-0.0016417871183352303,-0.0008444764030843439,-33.16903302383032,-0.0031527181483996664,-0.000945756847648378,0.00026319599503493447,,,,
4.34,0.0009530014923933047,-0.0067795837682392895,-33.13377919444637,-0.0009936501887695946,0.0006096901612228925,0.00012854008862132972,87430.50725964022,,,
4.3500000000000005,0.001068726079502438,0.006103096697499613,-33.094860701234026,0.001573858884754916,0.0013000088445259234,-0.0006090526479359284,,,,
4.36,0.001254717433766919,0.006186150805487635,-33.06441773510486,-0.0005089480617577179,-0.0009800335117745183,0.0004189950750168314,87376.24389356875,,,
4.37,7.147477073889709e-05,-0.002517868292696225,-33.029337915940715,-0.0007846151342504106,0.0010375929218556096,0.0009175092452342066,,,,
4.38,-0.002031834124823141,-0.0005680579575902656,-32.99802560047303,-0.00018448402706245845,-0.0004110896909237318,0.001703360614541064,87320.24053335539,,,
4.39,-0.0017240290509421235,0.0074675768829620594,-32.96187273399134,0.00031597447141076346,-0.0023853184351113974,-0.0002101513627505353,,,,
4.4,0.00016899494016782969,-0.0032701758144146795,-32.93054476502448,-0.0010013114031770438,0.00010776150206909177,-0.0005183949334551421,87265.14541471197,33.49864647438149,-99.3375716694181,1237.7950821604097
4.41,-0.001586475545112198,0.0015323482308111501,-32.8963529119357,-0.00012174503113011401,0.0003789876417360849,0.0006373503408053693,,,,
4.42,0.0006794311479907073,-0.002141234776872753,-32.85603089897469,0.0010488023969292763,-0.003288672893736242,-0.00018487948295087983,87211.41407474346,,,
4.43,0.002021185454242872,-0.0027592345287059564,-32.82870842620427,0.0011064715907692418,0.0009222459806740329,0.0010929714945886841,,,,
4.44,0.0034436259484246826,-0.001181375937945673,-32.80092073879738,0.0006935047846350368,-0.0012479160791413696,0.0013552525716664775,87156.07425358456,,,
4.45,0.0016613200308982655,-0.005381902891742016,-32.76541798444346,0.0014469594062731987,-0.0007244057875643115,0.0008537916913739645,,,,
4.46,-0.0033309931232142235,0.0008543178998216957,-32.73492161539034,-0.0008779819499397573,-0.0002080127589975649,-0.00019219630241853152,87101.85086737876,,,
4.47,-0.002815036843438523,0.001299994044593142,-32.70247540882538,-0.0009771496247641326,7.098669096492228e-05,0.0007495053944220835,,,,
4.48,0.002560188386670344,-0.00037255740423146517,-32.67960281327441,0.0010935668094132019,-0.0011273911216228443,-0.0015227872065161437,87048.19142541582,,,
4.49,0.003014970209683062,0.0035283337422304384,-32.64236048391138,-0.001398556997494232,-0.000999801092252394,-0.0010559957660424995,,,,
4.5,0.0051164643939163685,0.006361554857539026,-32.61815452914224,0.0009615901808463823,0.0012965514683501835,-0.00149670906538023,86992.69116992728,33.49860836102798,-99.33764079375818,1260.5706290948135
4.51,-0.004825575222839595,0.002362186051731739,-32.59267410234201,8.95044051947185e-05,-0.0003593251192344628,0.0006917409131689023,,,,
4.5200000000000005,0.0011117045546949463,6.209943789262783e-05,-32.571836222747876,-0.0014352339825843435,0.00011839452328918814,-0.0020674797158519395,86939.5458241407,,,
4.53,0.0007085440290138181,0.003049614598521171,-32.54252730522737,-8.41996853543225e-05,0.0019339529904169551,0.001498308956758292,,,,
4.54,0.0007200091807142531,-0.00363870832602411,-32.50050550615343,-0.00016917029296616514,0.0005012010637969105,-7.939371213941537e-05,86886.25481435559,,,
4.55,0.0016332726294345566,0.0007997450628052117,-32.471937280272115,-0.0007533652665083439,0.0005380924453134342,-0.001585049516940251,,,,
4.5600000000000005,0.002976483204720276,-0.002712778975369887,-32.43636093163943,-0.00045355559003879204,0.0011583796497984244,0.0008472741370398372,86831.7951885164,,,
4.57,-0.0022140513649598075,-0.0025074100222535114,-32.40659528251496,0.00019667176972238385,-0.0024450916074106976,0.00017501338362013947,,,,
4.58,-0.004048007522237855,0.0008472142309655908,-32.3788559757542,0.0007186176445683903,0.0015227963085006216,-0.001568508975490228,86778.80724316883,,,
4.59,0.006357234389615205,-0.000809728858007948,-32.34605978966481,0.0014523752264735158,-0.00011795171150200813,-0.0008211258419637803,,,,
4.6000000000000005,-0.000104449274572196,-0.001780987742790956,-32.313927620117184,4.0947775173367545e-05,-1.1704385968893377e-05,7.09294052270796e-05,86724.35108569264,33.498600559863284,-99.3376418677567,1295.2399660433614
4.61,0.003042863850728472,0.006223576170039817,-32.29225759936661,0.0012385747855123545,-0.0013641355013838269,-2.726580184331098e-05,,,,
4.62,0.0015283933097460076,0.0015573643622700463,-32.255231198868195,0.00021184522067592147,0.0004641644856766032,-0.0003506509913156124,86670.84152213915,,,
4.63,0.001881804299161528,-0.000330970197499068,-32.22405448140608,-7.5930210169104825e-06,-0.0016511344687709447,-0.0018516457367434517,,,,
4.64,-0.005187379102100764,0.0013643583949777991,-32.19502817135157,0.0018654888815050963,-0.00047274476340064114,-0.00032226287551817643,86618.86237036042,,,
4.65,-0.000593293505703338,0.0036128710959172166,-32.165203446134235,0.0011056868999104084,0.00022241856085268463,0.00014864838827013214,,,,
4.66,0.0009896088420913057,-0.0035349878351262657,-32.12670419617061,-0.001686851007957353,0.00033249677497805574,-0.0013311970393513816,86564.91761550024,,,
4.67,0.0022650331219696038,0.000992254844801713,-32.102303305024186,-0.00042818650109851554,-0.0010859502880639655,-0.002569793120014023,,,,
4.68,-0.0010743547476926624,-0.0026873187937732387,-32.064669211279586,5.4502156411842646e-05,-0.000939486647514741,-0.0002661581338091116,86512.54802044552,,,
4.69,-0.001736645078746872,-0.001078517520602927,-32.047637957014565,0.0005277891900846388,-0.0013834960628791378,0.0015271208336562674,,,,
4.7,-0.005474270456984294,0.003975463420840381,-32.01736021464103,0.0007090248344091224,-0.0009191850538880529,0.0002454687216027078,86459.6704846235,33.498621383583504,-99.337586765701,1314.9433643888617
4.71,-0.00297179383672247,-0.0005894958123246332,-31.99045319821902,0.0011262770628273063,4.04240485063374e-05,-0.0011418592520779974,,,,
4.72,-0.000786006641570226,-0.0008148580250114685,-31.96735050820291,0.0010352138289658618,-0.0007695722919651765,0.00048032154510318446,86406.86226091962,,,
4.73,0.0007763377664921173,-0.00011116981735102926,-31.943528227013168,-0.0006516236085349478,0.0013131812217922673,-0.0013833919110389824,,,,
4.74,0.00213200652178167,0.0002547838822481528,-31.910965840934082,-0.00017804311868720965,0.0004166338958247916,0.0012353632569150235,86354.73106247914,,,
4.75,0.0036269352281522644,-0.004319197877420814,-31.878288287433673,0.00017961708171644632,0.0010348076720241126,-0.0009445180403352677,,,,
4.76,-0.0005191345261334017,0.004555969479969044,-31.84839363046766,2.001073416296937e-05,-0.00045617955170191123,-0.0002131035028698534,86301.17115633267,,,
4.7700000000000005,-0.0040917046569720825,0.0010180426211595054,-31.819672072877655,0.0011820070545391329,0.00042126218368945855,0.0005220220968622222,,,,
4.78,0.0030293727377340876,0.0003313469012029091,-31.78872401143707,0.00017931982772862237,-0.0004037785435043862,4.7831055439235617e-05,86249.47251231468,,,
4.79,-0.0031464063266894568,-0.0021512972333185567,-31.759505245109533,0.0012858917323915642,-0.002119961569646874,0.00010528058240806857,,,,
4.8,-0.00021157241025463242,-0.0031544276393160294,-31.735490472362645,0.0022606529545562797,-0.0008635320353890182,-0.00028222147885005003,86196.56517391012,33.49863934267184,-99.3376186420556,1346.5591289320644
4.8100000000000005,-0.001146318784875608,-0.0032537024119514953,-31.704959265206064,0.0004306830633575906,-0.0016249866400218315,-0.0010690751731104859,,,,
4.82,0.001456542378171209,0.001076960490778636,-31.671272876419046,-0.0010908534325407718,0.0009563640030046581,-0.002024155658702934,86144.78496853157,,,
4.83,-0.0026067839333691447,0.0008584300859172585,-31.644319078619002,-0.00011004317718553186,0.00043893186833673806,0.0018237476005304619,,,,
4.84,-0.005625094629558367,0.0016966208874418629,-31.61894378071814,-0.0007137533765431868,0.0008780151538521128,0.0002586742826959104,86092.49538659632,,,
4.8500000000000005,0.005200874970664745,-0.0029317574290014374,-31.58989684496925,-6.894960481505693e-05,0.0001011156625080062,-0.0008413072962424965,,,,
4.86,0.0012192353352065168,-0.0025375638694296546,-31.564994078427084,-0.0008463645771603427,-0.00028970626804181957,-0.0010446228361431955,86041.86126662552,,,
4.87,-0.001889809890895795,-0.0023109331505879946,-31.53112599531062,-0.00018226963776251634,0.0003341770302999207,-0.0003464015599923532,,,,
4.88,0.0021424211244236826,-0.0012835365393551452,-31.503266342164277,0.0005650485755287432,0.0008338495791986256,0.0009678079658038517,85988.01514001409,,,
4.89,0.0017446841467024634,0.0014760992323835135,-31.47536030493357,-0.0002713946250197031,-0.0009728644296341726,4.4086247827374785e-06,,,,
4.9,-0.00022755607937499823,0.0009189826687446617,-31.455074559696712,-0.000492149646817399,-0.0009554217030275433,0.0005409334782923317,85936.59117675717,33.49859434239348,-99.33757817048158,1365.9651733352516
4.91,-3.472497982247745e-05,-0.000709246825725341,-31.431258203932313,-0.0012676811621107772,0.0007656566165234478,0.0007535119748487627,,,,
4.92,0.004366352960905679,-0.002731703681691864,-31.40584582269213,-0.0005864751092887584,0.0016417657923909698,-0.0007225834492842439,85883.82619161361,,,
4.93,-0.0018921763423878806,0.0032155011787369722,-31.38046316437261,0.0011238125704927607,0.0011982828387570395,-4.0134566512583154e-05,,,,
4.94,0.002127214664318596,0.0032122657436143695,-31.351052549813,-0.0005817876118991175,-0.0006677983037283395,-0.0009118016071114484,85834.21812016061,,,
4.95,-0.004434096355902745,0.0009932973349048657,-31.320836202269867,0.002884730666711453,-0.0011753706212793882,-0.001999364173090802,,,,
4.96,0.005202887936719618,0.0067742308967909766,-31.292452170188405,-0.0012892574744259788,-0.0006928194492703615,0.00022552001274383097,85783.08775054858,,,
4.97,0.0016782074249117997,0.001960364053276154,-31.265692499835538,0.0004682786400564784,-0.0004054845032759898,0.00025143577925669595,,,,
4.98,-0.0031093770118870746,-0.0033002960319156783,-31.242650270473284,-0.00083715429574825,0.00040985910781361046,8.2041493562631e-05,85731.91531150663,,,
4.99,-0.00124593879576412,-0.002439741395574956,-31.21472958564774,-0.0008732358143495676,0.0014086627106386837,0.0012187774723533837,,,,
5.0,0.002291882236020324,-0.0012395759570437172,-31.176102102971043,-0.000857877881813921,-0.0004891151680286132,-0.00043242213972184153,85678.29674145748,33.49865186563644,-99.33761641523338,1390.351681922165
5.01,0.0006484815376575447,0.0046323121603038895,-31.147885800668067,0.002684079189761009,0.00040937054633648814,0.0009283928354911155,,,,
5.0200000000000005,0.002658432075050438,0.0008852751499856112,-31.12247808647692,-0.0005673586995998175,-4.710101677279172e-05,-0.0010166699280468934,85628.77418832609,,,
5.03,0.004009707068952704,-0.003024683526253616,-31.098534680393442,0.0005421248605712955,0.0010078286548412373,-0.002273253637530011,,,,
5.04,0.0007288519517097394,-0.002380902935440655,-31.076518407844333,-0.0003837302190729405,-0.00021061049114324754,-0.0006188835509547633,85578.79906689234,,,
5.05,-0.0012927648082673379,-0.0003250048874460053,-31.053488362283673,-0.0013687989466481898,9.05272912969952e-05,0.0001225817484290051,,,,
5.0600000000000005,0.000888974779126261,-0.0014501084552691486,-31.026312257421896,-4.876131548007667e-05,0.0003500821874610682,-0.002673467796578363,85527.39645962889,,,
5.07,-0.0036143934135041056,-9.435347688911027e-05,-31.009282749429747,-0.00029673772008191807,0.002739306959970447,-0.0006840005991702489,,,,
5.08,-0.002725897467976862,-0.0010354283574135167,-30.978637869314674,0.0006621818925842502,-0.0010314694981493765,0.00012235215776574675,85477.79624404277,,,
5.09,0.001942965050872597,0.0016515255798888785,-30.952633683969413,-0.00033395618079520346,0.001105141237690383,-0.0016140728507947288,,,,
5.1000000000000005,0.0017441592071251737,-0.0016490700311874366,-30.9279869846869,0.0015677425087769446,-0.0018213004949430604,0.00020403006292822308,85426.98462685687,33.498619061008775,-99.33759678807853,1410.354336950015
5.11,0.0010084296082074854,-0.0002810181785731685,-30.897931650730186,0.000971614648531213,0.0010585262021948815,0.00023156242819448236,,,,
5.12,-0.001571800573979267,0.002851288684664682,-30.871869829133033,-0.00034036752565345425,1.3561175059898182e-05,9.911270654666691e-05,85375.86764837442,,,
5.13,-0.0033760997790309093,-0.0003956198902522624,-30.841788097348285,0.002291534787754702,-0.00010425958907928954,0.0005243119559861806,,,,
5.14,-6.878571701229628e-05,-0.0004165585435269308,-30.818331666281605,-0.00028504841412145743,0.0010824756243788545,-4.917041959974862e-05,85326.12629500993,,,
5.15,0.0009317515328581079,0.00046229543053678064,-30.79190760519002,0.00042538678744557655,0.00028639044207580936,0.0009655369807354147,,,,
5.16,-0.0009156385838896204,0.0004676123549963709,-30.76377683122407,-0.0011762805106705313,0.0021354472885703555,-0.0024849521850902473,85274.40219482064,,,
5.17,0.0013412581372677455,-0.0013632000608627542,-30.746733841866213,0.0009956445046152504,0.00012136829570837643,0.00034727698474364187,,,,
5.18,-0.006576469197042729,-0.0016875921741057907,-30.715797975336734,0.000567344809570911,0.00034738445991644223,-0.0005566065481722978,85225.85805981234,,,
5.19,0.0008069683509492617,0.0003797401652742745,-30.686729506464083,0.0014293089575161504,3.6300855757652086e-05,0.0010225707281168624,,,,
5.2,-0.0021247475164157133,-0.005399601908657908,-30.67032211435808,-0.001143935693578189,0.0002651860031259683,0.0018031255060511806,85174.03472567107,33.498597125123155,-99.33764696333452,1448.6314327280331
5.21,0.007321548932690025,-0.0061292184803085955,-30.645473619026475,0.0004756938742347431,0.002217790615044153,-0.002459885736422525,,,,
5.22,0.000614418678371102,-0.004107777846468065,-30.620376113265824,0.0012752084960287134,-0.0002850478154795973,0.0014812257948966267,85126.57341211873,,,
5.23,0.0006792753634228462,-0.0019330636019688934,-30.60298412453813,-0.0010039292091849688,0.0006343977320272685,-0.002327278435413463,,,,
5.24,-0.004226261261974344,-0.003591466348517831,-30.58517915193139,0.0004405112825106539,-0.0009482582064756594,0.0008099726500024819,85075.9067572633,,,
5.25,0.0024639695227452545,-0.001784935293534488,-30.549524486465298,-0.00013524758125744047,7.590311463539384e-05,-0.0010890444870333197,,,,
5.26,0.005179833289451913,-0.003937144806374255,-30.528936858905897,-0.0001687654570262453,-0.0010200668077184661,-0.00037466929300477544,85025.79144200755,,,
5.2700000000000005,-0.001616421682133076,-0.0013532255149744455,-30.499389276956748,-0.0013933731250880673,-0.00036857660790042375,0.000350453583425718,,,,
5.28,-0.005520747955255891,-0.004768562697405784,-30.474632105252095,0.0011960327729802842,0.00037198838729428054,0.001045825660415458,84976.62686674863,,,
5.29,0.0011980334776042407,-0.0009776971408779263,-30.442836565619736,-0.00036727719175064027,0.0009138809455934432,-0.00014229748455854246,,,,
5.3,0.0027580374600525066,-0.005373735934079966,-30.4210067587538,0.0020253099448009327,-0.0013519801132625994,-0.0006057286054455619,84927.14030914869,33.49861685721698,-99.33760107840867,1464.5458730321561
5.3100000000000005,-0.0011873599245884872,0.0008501808588271343,-30.396548481046562,-0.001112032516073794,0.0008198291190686597,0.00022195552973972442,,,,
5.32,0.0024543914235993936,0.0017713238216752435,-30.365584948359494,0.001543338532722431,0.0010672318740509654,-0.0012091659461428183,84877.03182620471,,,
5.33,-0.0021528057761522486,-0.004886115349182728,-30.34544078749273,0.0005013547757716921,0.00045261804874342695,0.00013167342143694666,,,,
5.34,-0.003636978765354707,-0.001611745295341739,-30.31386536910013,-0.0015876142553446079,0.0005964416476885064,-0.0008490597756874965,84827.71653777822,,,
5.3500000000000005,-0.000946538842024695,0.0036888859517680986,-30.29664799585573,0.001708961265453493,-0.0005174868697865494,-0.0012019678914657593,,,,
5.36,0.003994262644832095,0.0032201517243633597,-30.276493911450338,-6.71229501960668e-05,0.0009685491546487904,0.0010773518435886955,84779.4948260867,,,
5.37,-0.0006725601777135831,-0.0007222317044652037,-30.251623400917317,0.0005910624919570683,-0.0012551811200206967,-0.00047312252205314385,,,,
5.38,7.249331662553848e-05,0.000252128322848969,-30.234563693229262,-0.0005592494224094123,-0.0008579257124709364,-0.001935335318988397,84730.84808556568,,,
5.39,-0.00020352828200811623,0.0014331582078272135,-30.213989322515534,-0.0010146370580599406,0.0003919288895050073,0.0013749058822590914,,,,
5.4,-0.0025601934225363953,0.004071875443559652,-30.185896029547592,-0.0007275273161570643,-0.0001637303774633762,4.308852894668298e-05,84682.30439661088,33.498636195052086,-99.33763386198649,1497.230511140253
5.41,0.0019581534895477108,-0.00299424580998434,-30.160869746549817,-0.000993608012995387,0.00019513822805269728,5.24451905645438e-05,,,,
5.42,0.002381488344692784,0.0008764580630534626,-30.135885253656575,-0.000653214838216396,-0.0009368528317740791,0.0013494242378900283,84631.4828655051,,,
5.43,0.003115984132215569,0.001087386436250508,-30.10768452312257,-0.0001089637488569525,-0.00011748729192644661,-0.0006797178972541755,,,,
5.44,0.002222873573347198,-0.0039710544288748695,-30.083351782185453,-0.0018772577492258094,0.0004156412663351309,0.000852542986920541,84585.53583865272,,,
5.45,0.0004163790676797963,-0.002552665892548794,-30.05700593510978,0.0001319489461733864,0.0006987285503334467,-0.002073097680276377,,,,
5.46,0.0023910583743921377,-0.0023622416299563767,-30.03589327774964,0.001248935323761506,0.00044742671880144497,-0.0010768705518430781,84534.79379029623,,,
5.47,-0.0032131218586280846,-0.0012863658423962717,-30.013480433262224,-0.0014656325895920494,0.001528345731807467,8.653071931842337e-05,,,,
5.48,-0.002486386345540518,0.003067748348947215,-29.98586991506492,-0.0004331315073908492,0.00027237500435065264,0.0008763767458588422,84486.29005346041,,,
5.49,0.0006586364804083745,-0.0003061278992934973,-29.956534468392285,0.0017648963645609053,-0.00022179827936096225,0.0005043520509618625,,,,
5.5,-0.0008503418616161453,-2.0615415627203635e-05,-29.939760600883574,-0.0024815743721059744,-0.00016244306415077176,0.0007715409443997596,84439.60085508256,33.49861672427377,-99.33756033910599,1513.470697625065
5.51,-0.0020335293474681515,0.002240819634712177,-29.912921856603397,-0.0006106529449107132,-0.0013980395061290697,-0.00014383265746159413,,,,
5.5200000000000005,-0.0013295241118721694,0.000355890232502434,-29.89976140804676,-0.00027777035855281525,-0.0006324054113294251,-0.0010461793614872429,84390.68229756312,,,
5.53,-0.005350896969048002,0.0014230375948185241,-29.876296668015602,0.00097937131515632,-0.00041018026003081953,0.0013422938960611045,,,,
5.54,0.0002905600380485581,-0.006279081610700121,-29.856811312395624,0.0010343635866840283,-0.0003467028063761259,-0.0006274877404020061,84341.78508007829,,,
5.55,0.0005255444949496432,0.0024165018626485504,-29.827487991968,-0.001114405057266112,0.0016580529680834829,0.002917400304474964,,,,
5.5600000000000005,0.00012096431840359338,-0.0008548986465548229,-29.805895272367138,-0.0003108993196952948,-0.0006295870920561246,-0.0004331794765404116,84294.63136777807,,,
5.57,0.0022499685675320433,-0.003610859300428908,-29.775380795691724,0.0012249945768107494,-0.00043456746207286333,0.0012188837277326337,,,,
5.58,0.0018341180410960055,0.002133442213876133,-29.752318126485484,0.0003520519836477037,-0.00033015159521186573,0.0010492714304527935,84244.97380651526,,,
5.59,0.0051579264885811054,0.002051500402031612,-29.73318290324864,-0.0005434626490846479,0.0008488836877405167,-0.0012965231445358216,,,,
5.6000000000000005,0.00158748047869329,0.003657202493638126,-29.71654886320724,0.0006739083863044954,9.813374598147038e-05,0.0005302532495904483,84198.56589993295,33.49863418038846,-99.33766755913466,1534.064185629249
5.61,0.00011914690724368589,-0.004442810155294508,-29.69465569824908,-0.0012366589273872146,-0.0003223096973595677,0.0010512057736706216,,,,
5.62,-0.0008476284648206746,0.0007724362105165896,-29.67730232832344,-6.537800409562137e-05,0.0006551531441718679,0.0002702896900325825,84150.88082290611,,,
5.63,-0.00288551937612902,-0.00313526563279605,-29.653473285522097,-0.00028063221873619025,-0.0017005585906080653,0.0012599297641710749,,,,
5.64,0.0019165652413238741,-0.0004166256302596826,-29.631982284337617,-0.0011019922920539763,-0.0020037406678009738,0.0015652059376601202,84103.88657335933,,,
5.65,-0.003647265991895058,0.006595366054476753,-29.609738950306642,-0.0005060977567993649,-0.002771202818579427,-0.00029073879073369274,,,,
5.66,0.001584613843902248,0.002059595559298826,-29.58706875630815,0.0008448074566375437,0.0006501776888949868,0.00019397689338484565,84055.7756396988,,,
5.67,-8.055710498692267e-05,0.0015786124947823942,-29.56013146294903,-0.0003461845364954698,-0.00017281347422596404,-0.0003296335752674065,,,,
5.68,-0.0030370147958187635,-0.002012558065006713,-29.53497758495221,0.0010142390089740126,-0.000900708297468052,0.00045785676064681423,84007.53850147588,,,
5.69,0.0005226826450127494,-0.0019793794707636107,-29.513326963048335,0.0008672669163659726,0.00014473043828565818,-0.0028518061446252173,,,,
5.7,0.0024237839440845598,0.0021027731018233584,-29.494936377075895,-0.0007219874666804828,0.0014602322184357724,0.00020821014430485063,83960.75309253273,33.498683282234616,-99.33760039768579,1568.0781202191035
5.71,-0.001978147620729078,-0.0017606793408386921,-29.468711685186964,0.0005131778542737677,-0.0003569206853579176,-0.00029301492262670217,,,,
5.72,0.005107272340698859,-0.0028643842369277,-29.44102655113833,-0.00035895233420966407,-0.0006834175526225298,0.000382878433298497,83913.13456117517,,,
5.73,-0.0012304264897344888,0.0004864315724118377,-29.42050437320004,0.00023454302929721454,0.0006070144976700311,-0.0005613589528906867,,,,
5.74,-0.002005579703172781,-0.003051793872943932,-29.396302516374305,-0.001276120863396222,0.0010735983202110578,0.0015195226396103546,83867.65587163344,,,
5.75,-0.0019427254458814042,-0.0011035800655952725,-29.37894670380421,0.0008959642386435437,0.000357491755358522,0.0007667878574874219,,,,
5.76,-6.458702497243281e-05,-0.0006739016249581407,-29.363654034801,-8.609776650271347e-05,-0.0016432511744602402,-0.000664476073488324,83819.13809070922,,,
5.7700000000000005,0.006878784420383339,0.005595598901406626,-29.34332368185966,-0.000203251238029837,0.0006922444779314884,0.00013453451712446162,,,,
5.78,-0.0017930898338337992,-0.0031899302998997644,-29.325381309646616,-0.0006738024340285035,-0.0008322466008067031,0.001514326244567294,83771.78529412915,,,
5.79,-3.450283273607298e-05,-0.0004450973572066018,-29.298955150696862,-0.002475758863208111,-0.0005648402875213269,7.960220483045665e-05,,,,
5.8,-0.0015944248332497165,-0.0014329616214422273,-29.27905295890137,-0.0028362103602390144,0.001135757610360714,0.0007527112933586512,83727.18739248751,33.49859424780538,-99.3376163254147,1574.050446487914
5.8100000000000005,-0.00036167801465100636,0.002067836980103367,-29.257908394945446,-0.0003699865587841199,-0.00010667952535173836,-0.0016250850536185864,,,,
5.82,0.002815633144665126,0.0042061070083635075,-29.229510948201295,0.0012526223551837545,0.0016490512741688453,0.0012309410798094663,83679.45407375263,,,
5.83,-0.0017442335610292862,-0.0016354940748695504,-29.215251611842092,-7.261437332262515e-05,-0.0008286823932105332,0.0016864193262788208,,,,
5.84,0.001904152823113278,-0.0014296187804459896,-29.192762978598413,-0.0003039791176379166,0.0002621292956843855,-0.0001813115278787532,83632.09036869749,,,
5.8500000000000005,-0.002527117129857609,-0.0003624897350373971,-29.170132132432357,0.002596508080487944,0.001040564489473782,-0.001183977093907397,,,,
5.86,0.0009703249567293711,0.0005302485227898592,-29.149985650047196,0.001626946419869693,-0.001466058620631373,8.847758895509317e-06,83586.81236054073,,,
5.87,0.0003908579610873406,-0.00047692437234835575,-29.134990536101785,0.0002702788928441893,-8.67600334034161e-06,0.0023182956692776075,,,,
5.88,-0.0011411715105457748,0.001792567286065424,-29.112082637896442,-0.0006440870818085101,-0.0006005783038544179,7.466567155805858e-05,83539.43259164295,,,
5.89,0.0015103772046950363,-0.0025895329791005206,-29.096341418903073,7.379951301084668e-05,-0.0018014753421608579,-0.00030231605382769107,,,,
5.9,-0.003379241178721168,-0.0045259532510365024,-29.0759536688931,-0.000982094656926629,0.0007340147601212745,4.634535816222154e-05,83493.53019456685,33.4986279741808,-99.33763102636854,1604.2994631084823
5.91,-0.0019778488570067056,-0.0011389029475723043,-29.051430238293495,-0.0020216267566473627,0.0016382663344283721,-0.0006584404704888685,,,,
5.92,-0.005173208561031351,0.0005770843321370312,-29.029869344799973,0.0007765869308235521,0.0004823570392455821,-0.0015737605408069615,83447.2506367387,,,
5.93,-0.0016615177971085109,-0.002003890594486675,-29.00402972500092,9.505992859248569e-05,-0.00046493631423123223,-0.00041381030073280343,,,,
5.94,-0.002469480112968322,0.002751112965973778,-28.98550449285322,0.00027370295324897554,0.0004632401867530757,0.0009935945526590322,83400.56855889983,,,
5.95,0.002909742427559056,0.0016533325563474776,-28.958792757380564,0.0008723851137886222,0.00022690462174749186,-0.0002972269302135649,,,,
5.96,0.005997170289704946,0.0064841004782901345,-28.94470916716465,-0.0010054876563364056,0.002047444945998203,-0.0005653460895842574,83354.90793913718,,,
5.97,-0.00022683515603243685,0.0044805402970943715,-28.929378091067935,-0.0003149215439622822,-0.0011238766712449888,-0.002091588291284925,,,,
5.98,0.00385948626765177,-0.0023979949419732052,-28.90596533844488,0.001021360260965284,0.00037800218561869246,0.000952282856495826,83309.22433244732,,,
5.99,0.0030679365512042522,0.0049671205872726,-28.889944337239726,0.00023734628434859725,-0.0015670187329373164,-0.0006681199832838026,,,,
6.0,0.0009811503343080184,-0.0047422271462817436,-28.8719494135047,0.00059121667484964,0.00014881342686871645,-0.0021104314474797753,83263.7188637064,33.49863942507127,-99.33759667479862,1631.9297777761976
6.01,-0.003326547364394848,0.0033738370588108613,-28.85129169141658,-8.489568535563846e-05,0.0004689837077736143,0.00025975991893996213,,,,
6.0200000000000005,-0.003144754574100435,0.0012191296894324857,-28.82726360381213,0.0009476666842920405,0.001620715520760212,-0.0004985741405598842,83217.8757369814,,,
6.03,-0.002437000485057452,0.0040670935493773335,-28.80631695588225,0.0014438519131284855,-0.0004197274202070855,-0.0003250316782206597,,,,
6.04,0.003063938505291582,-0.007946379796129987,-28.79044228741088,-0.001188774909016244,0.0013033648361890616,0.0010316261389245452,83171.15749769575,,,
6.05,0.0022714303228387363,0.0006644028175269653,-28.76504668858824,-0.0017213034706252167,0.002669760034086204,0.00036523147981105426,,,,
6.0600000000000005,0.00124798156062343,0.0043626414910530875,-28.748280909306832,0.001072831569626191,0.0011599032409075124,0.0009991305382538672,83125.7329812324,,,
6.07,0.0017880719927249084,-0.005195482818026494,-28.730036538088914,-4.407099898404155e-05,0.00016978422067806894,0.0008253165594552813,,,,
6.08,-0.0031913661021357913,-0.002794011663530975,-28.71754050088485,-0.00034216723936434073,-0.00038503968945562605,-5.332281334524015e-05,83080.98631952486,,,
6.09,0.005555717652664831,-0.0006403440087174504,-28.695358726828893,-0.0004380673100064287,-3.110550647737372e-05,0.0016836428443056939,,,,
6.1000000000000005,-0.0006078974440174514,0.0015217050959840837,-28.674924618518023,0.0002132409127866916,-0.00010660181624170448,0.002127254837505764,83034.52083875569,33.49860893811906,-99.33758219617168,1642.247947592606
6.11,-0.0008693929595815117,0.0033230663706797347,-28.655900162893218,-0.0011469639585347199,-0.0012762058256537662,0.00045141090231279514,,,,
6.12,-0.002906009289174962,-0.0015034720562398503,-28.63471402681005,-0.0006434149925734801,-0.0018066149818540655,0.0003395302489943764,82989.48420146744,,,
6.13,0.00247913672594545,0.0009829726218429755,-28.61012852350543,0.0003555713743905365,0.00016473250727710686,0.0003548513749069906,,,,
6.140000000000001,-0.0010898878009198104,-0.0026323397767149008,-28.590189560310243,0.0001643545963672634,-0.0006358793348442961,0.002691185337009225,82943.72243762345,,,
6.15,-0.000883890100808468,-0.0025326793626821538,-28.56629956161272,0.00025067119792865843,-1.5163323071774335e-05,0.000693422923342154,,,,
6.16,-0.002426347955975421,-0.0002715327013428305,-28.55481741747096,0.00094424812942207,0.00028037949686552293,0.0010556657525734121,82898.6669168884,,,
6.17,0.0011453644964138452,0.004862322828081047,-28.53186643346178,0.0010591340509510398,-0.0006088572690748593,-0.00010103783347501984,,,,
6.18,-0.0011169739921940366,-0.0011171106370740428,-28.520168746849997,-0.0010140403808930004,-0.0008041872435292516,0.0014303210847893008,82854.25717632144,,,
6.19,-0.0038459587098344516,0.003024965567535005,-28.49514060232194,-0.0003871505520488065,0.0013348412199050276,-0.0016081766619602004,,,,
6.2,-0.00242387065579509,0.0003288680432496587,-28.482148544772322,-0.0004310577382344049,-0.0010965193576514417,0.001805943896345823,82810.60713789574,33.49861414642608,-99.3376716117476,1668.2871373709588
6.21,-0.0007080694106810002,-0.0006904026402543961,-28.45882173381697,-0.0005439517535472899,0.0009628506410669611,0.000815818695093961,,,,
6.22,0.0035432214322258715,-0.0024564163244671492,-28.436728398639502,-0.0018450489509790335,0.0014102519588655778,-0.0003977791951605445,82765.12238188444,,,
6.23,-0.001484466495798203,0.004651061289203513,-28.414181647446423,0.0022774673517784246,0.0016805344998317992,0.00016716259143450618,,,,
6.24,0.0005025668321695159,-0.003150149326959717,-28.396428212695426,0.00013079833318451774,-0.00032784923192100666,0.000914723697817539,82721.49967777554,,,
6.25,-0.000370366312978127,0.006781353350135442,-28.375740789908246,-0.0003326074193174652,0.0008603455621392216,0.00010527355861882942,,,,
6.26,-0.0013617133281317118,0.0038104646524181785,-28.363088015541692,0.0005577558779105499,0.000395446267197469,0.0018802446909765584,82676.04041850506,,,
6.2700000000000005,0.00048415176755132495,0.0034009693643918273,-28.34782095581956,0.000640355703229845,0.00041075614817891756,-0.0004539912881376614,,,,
6.28,-0.0005881286337817139,0.0021537071445187116,-28.32933505620097,-0.0005787504010005053,-0.0014009913297517965,-0.0008221228581325861,82632.54023456914,,,
6.29,-0.0004954185402353154,-0.0019354722199713297,-28.319968002496736,7.497924981079401e-05,-0.0004239411650279142,2.0142430668743456e-05,,,,
6.3,0.004511241871644535,0.003428763377930704,-28.292400416504016,0.0003478784089059467,-0.0016485270611537777,0.0002641619910109721,82586.86165035286,33.498647438402735,-99.3376183258689,1700.5726488601413
6.3100000000000005,-0.002247383066835821,0.00461413026501269,-28.275769838995267,-0.0007784151925574002,-0.0011399156095039135,0.0006199288865020542,,,,
6.32,-0.0006760402548751811,-0.008253243712250476,-28.25645042774831,4.522516083893754e-05,0.0005945770265531867,-0.0006702616538707707,82542.44274180397,,,
6.33,0.0017934050253299925,-0.0005390595465821923,-28.233349329092903,0.000624094531695752,0.00026444094448294884,0.0009274779391350691,,,,
6.34,-0.0026807648306659574,0.0025203248743525188,-28.215033285468444,0.0015408678205042475,-0.0005631069581650989,0.0014111681121393358,82498.94832738819,,,
6.3500000000000005,0.0008140981484922237,-0.0008548279617894013,-28.196073050695098,-0.0014658516229652339,0.0001248472656501774,-0.0002721123246888856,,,,
6.36,-0.004322708910066734,-0.00015584572407133717,-28.17669931021278,0.000999391633798286,0.000861524737679051,-0.0011061343318844155,82453.55569627107,,,
6.37,-0.002810167357331625,0.003605580062589473,-28.162255967547747,-0.000339796982701084,-0.0002651943379297665,-0.0015796749517386635,,,,
6.38,-0.0036819830864221847,-0.005822758229602728,-28.13999264906245,-0.001635275804748032,-0.00018411794623923464,-8.364200278691765e-06,82410.2690583243,,,
6.390000000000001,0.0016126607117004609,0.003188136480918773,-28.130422706637592,0.0009745413874280608,0.0003556308442250208,-0.0002112843151635962,,,,
6.4,-0.0019939727865304073,0.0012707693837372212,-28.10706309502672,0.00018516006878778292,-0.0007735200936838212,0.0005983323399788457,82366.11322752856,33.49857810762672,-99.33763669533117,1710.9889353057272
6.41,0.004077962829164437,0.0008294733221197221,-28.086190700232596,-0.000700503581294178,-0.0005045988829450169,-0.001520656808408431,,,,
6.42,0.002447374464419308,-0.004118973179569875,-28.06657108648851,0.0004805604952974183,-0.0002001252544125683,-0.0010213075711749866,82322.38315649002,,,
6.43,0.003927587452106307,-0.0038615752525711323,-28.047721679849083,0.0006235642381046467,0.0006349992641615925,-0.0007508479433461292,,,,
6.44,0.003590875908313917,0.0006224442439295234,-28.028640175357857,2.4350091859340202e-05,0.00012178556648734977,0.00013776365543838852,82280.0895988908,,,
6.45,0.0004121346292208519,-0.004145578119286635,-28.01277491094173,0.0006343355869563007,-0.0007194307528658873,0.0010965952917516932,,,,
6.46,0.0014315805632860515,-0.003410312020806232,-27.990363012246043,-0.0005452675247124878,-7.05967271731537e-05,-0.0011520515826653603,82236.49999641154,,,
6.47,0.0031164199989145032,-0.000859190827987575,-27.977554983313883,-0.0012529473372360142,0.00037883432052719825,0.0006013443377101229,,,,
6.48,2.1695835730767852e-05,2.8580949421093807e-05,-27.963299286903684,-0.0027039542303312217,-0.0011736450116355977,-0.00032423341298964525,82190.74003262556,,,
6.49,0.003075030658633244,0.0014381467258738623,-27.945551465062053,-0.0023412839212562874,0.0003246244317374158,-0.0005007501902038674,,,,
6.5,-0.0032605425057172397,0.005395416589927317,-27.932824852741327,0.0021002124681315207,-0.00020972321159063695,0.0007963604883227302,82147.88414966589,33.49859475974805,-99.33768597942662,1720.0027229254163
6.51,0.00021223883901492973,-0.000498625096005621,-27.911038627489834,4.692372886905792e-05,0.000929820505262571,-0.0010925849433640112,,,,
6.5200000000000005,0.0013478439891689547,0.0014049126378496359,-27.887454892449057,0.00156505767449552,-0.00039367493934753725,-0.0018130263328516249,82105.56091401688,,,
6.53,-0.006829586078334898,0.00527077235140212,-27.87201319766072,0.0009477728469606916,0.0007689517166612515,0.0011572335912131643,,,,
6.54,-0.0029469526506961928,-0.00282948979247233,-27.85196112497881,-0.0008898584499443669,0.00037194406420018415,0.0012114186313202855,82060.98487438145,,,
6.55,-0.0017606306087073209,0.002509991418662358,-27.833468378449922,-0.001450972753084807,-0.0007791071161633113,0.000324703592592286,,,,
6.5600000000000005,0.002705182805121133,-0.0030386662830472837,-27.823544232069423,-0.00047525613664383667,0.0005722818548265225,0.0023125558516753474,82017.81968189869,,,
6.57,0.0008553475860309077,0.0017274591942915817,-27.80987671864598,-1.1362282741411518e-06,-0.00022736049749933748,-0.0016411827463881912,,,,
6.58,0.00048018604303813134,-7.954401730973575e-05,-27.787840948855738,-0.0008363695940302581,-1.2319359003153646e-05,0.0007998540541344966,81974.07267619469,,,
6.59,-0.00011011067144554797,0.005930286444011564,-27.768551888871254,0.001202042207141362,0.0009519255792950421,-0.0005842241828818393,,,,
6.6000000000000005,0.003280005405321807,-0.0005456676547364131,-27.749083957080693,-0.0008698690408405139,-7.826875146142828e-05,-0.0008310018696599183,81932.8662377887,33.498644170865234,-99.33762224917946,1756.4079844982205
6.61,-0.000457297417350866,0.0014888183724650905,-27.73616058799603,-0.0009457498136539002,0.0009134026206929137,0.0009098516232658541,,,,
6.62,0.0017641192594668325,0.0012996001021022162,-27.71453965815985,-0.000392799893586938,-4.925041239749077e-05,-0.00048707505722448726,81888.67296991078,,,
6.63,0.003919090676214155,0.0030608163224520955,-27.700836241886957,-0.0007980802830595364,-0.0010228931149083528,-0.00015050187552315253,,,,
6.640000000000001,0.0012447175660946334,-0.0023911879701220182,-27.678564218586466,0.00016335362279065388,0.0008634990000894879,0.0013332548741726773,81846.33643064582,,,
6.65,0.0012835739207537578,0.0047284882962141716,-27.663441972160502,-0.001988038903771953,0.00021844536365180504,-0.002454005922636666,,,,
6.66,0.0004982797108266469,-0.0026117585167271967,-27.644428337605493,-0.00033501796818477677,-0.0025323913559091096,-0.0006437700716547567,81804.0977258797,,,
6.67,-0.0008181502346512852,-0.002863446664630258,-27.627748447453722,0.0007763120255195297,0.0002235874657017398,0.0009984288978372442,,,,
6.68,0.003941976327544612,0.0023587793492784123,-27.614241430240025,7.517282322240916e-05,-0.000882020708132792,-0.0002577222415300669,81761.24421434791,,,
6.69,-0.002441801921593141,0.0015326720062492415,-27.598168699813645,0.001186844205392766,0.0007782093307501653,0.0004869417984889962,,,,
6.7,-0.005529902182018893,0.0005188177502230632,-27.581317436295652,-0.0007072431231007287,-9.572771225706019e-05,0.001470560737902805,81718.68664893386,33.49864930007445,-99.3376421130496,1768.2910833870164
6.71,-0.00475351757491597,-5.62941558779649e-05,-27.56190584062799,0.002510748690711016,0.00045153291241840335,0.0005606728206392617,,,,
6.72,-0.003200632890297574,-0.0006376107207834031,-27.5418940613417,0.0004373393643231264,0.0013501306697128084,-7.81853415803604e-05,81675.11615535212,,,
6.73,-0.0015711180471050072,-0.009677220363803148,-27.5208777609426,0.000549046576655818,-0.0008163854211661152,0.0005975202852115725,,,,
6.74,-0.0013805765441013546,-0.0031118956331780655,-27.504050703440306,7.402349199614678e-05,-0.0009336713580495635,5.103988890888489e-06,81634.39935437744,,,
6.75,0.003764320723729953,-0.0010806055270717548,-27.486431678250394,0.0011634853463802458,-0.00011308658879274138,0.0003790050978741621,,,,
6.76,0.0013671778082912007,-0.003055729898299055,-27.472333428787334,0.0009312047241384416,-0.0006252193751959982,-0.0012862310804086577,81590.19821187045,,,
6.7700000000000005,-0.007767018234323661,0.00116448591564045,-27.455440481948056,-0.0011147303208765592,-0.00045588697648569706,0.0018924586880880736,,,,
6.78,0.0010285630358286397,0.006380602272022051,-27.439598339444906,-0.00033490693600267537,-0.0005675097832729572,8.987696415592177e-06,81549.23023210108,,,
6.79,-0.007332080700716037,-0.0038988242265244836,-27.43002046119761,-0.001150823485022807,-0.0007526502497943942,0.0009546058232071575,,,,
6.8,0.0026615958279947068,-0.0028739186757415066,-27.401727965267636,-0.0009214751189023622,0.0008361847831175281,0.00120633660865207,81508.36574072452,33.49860901260401,-99.33760599409752,1795.9199308534262
6.8100000000000005,-0.0019501916870292141,-0.0018924395366593395,-27.393400555372704,0.00020285115364909812,0.0007077632861372588,0.0004722698385112806,,,,
6.82,-0.00015758985915422858,-0.0012620003722535124,-27.367570905328765,-0.003793826266983022,-0.0010262576122522444,-0.001411188686219065,81464.22842157878,,,
6.83,0.0014325409202585741,0.0008658781353888592,-27.357888302399303,0.00035777453522139254,0.00011675872062971455,0.00094686594225513,,,,
6.84,-0.0053821257141958324,0.001369572053345107,-27.338976478156287,-0.0013386109052082077,-0.0002006277151798777,0.0010921721705294252,81421.90478912297,,,
6.8500000000000005,-0.005964854163019998,0.0014638360569845695,-27.32469030539615,0.00036117783502644563,0.0016614232834283925,0.0006924155036879033,,,,
6.86,-0.0006756193677993253,0.005288227952633799,-27.307572527484496,-0.00026052039872514777,0.0012175918087448385,0.00012034863661219991,81379.42700363061,,,
6.87,0.0010094045373450304,-7.209457564102125e-05,-27.294110345236057,0.0003225236209675274,0.0001986048390361741,-0.0006890978078449024,,,,
6.88,0.00016222875611118627,-0.0018119335946429965,-27.278277697206807,0.0005310189438625454,0.0006285855868027116,-0.0014223151488247398,81339.11241141843,,,
6.890000000000001,0.0002438777182912503,0.001941920978170713,-27.260786185890154,0.00017350983694393746,3.2323581842758546e-05,-0.00013519443710112314,,,,
6.9,0.004094523640076598,-0.0021618839188572367,-27.249717164386883,0.00038732299373158444,0.0009251848261595877,0.0011417234181049151,81296.50988886887,33.49862901951046,-99.33764049769466,1813.2427421165362
6.91,0.0009696283874537958,-0.002368795461169521,-27.23337413583752,0.0015815332994497243,-2.0150985338822208e-05,-0.0015881261580012846,,,,
6.92,-0.000451249848391119,0.005998464812690046,-27.22142937033327,-0.002682225113440809,6.1597541654745e-05,0.0012276403907837106,81255.49446431418,,,
6.93,0.0012832159114705922,-0.004496238510489404,-27.204119101279094,0.0005951055422461814,0.0012216736231136385,-0.0012385581889781025,,,,
6.94,0.0034171999748230427,0.0006534099171769396,-27.193272218616507,0.002258069431960578,-0.0006166081948501733,-0.0012303778028131278,81213.3860974158,,,
6.95,-8.946704927527257e-05,-0.0043277193424630924,-27.17815687385904,0.00021776062771666226,-0.00015340370267112523,0.0020715685266427877,,,,
6.96,0.003326399712917272,-0.004592269679164841,-27.15762101664667,-0.0009091313283086516,0.0011649098314339564,-0.00012234682571034616,81172.91777250306,,,
6.97,-0.00018256816214219052,0.006942086856898821,-27.141443668227378,-0.000873331405528444,0.0007003313465572373,-0.0008963022761212809,,,,
6.98,-0.0028329060704763427,0.0006155844597274378,-27.129464392072904,0.001385863573129963,-0.00010097654493655288,0.0009956884801613347,81131.63652686588,,,
6.99,0.00394273998287878,-0.0051861813477824155,-27.11111982098439,-0.00262256604626703,0.0009411098074954027,0.0002332943725998996,,,,
7.0,-0.0019976275254089335,0.004860715720850334,-27.085527632815513,-0.001689609702134511,0.0006082756651017698,-0.000994128260973425,81091.0816218176,33.49860375644174,-99.33765333284879,1844.2897938950232
7.01,0.006236344066864862,-0.004674411039660455,-27.074794965952215,-0.0005178192558127829,0.00024225065281633968,-0.001389051167104497,,,,
7.0200000000000005,-0.00314476652119368,-0.006319296576975243,-27.060125850695485,0.001960253306731508,0.0011623452488301641,0.0004899423289494167,81049.5258133043,,,
7.03,0.002599918001310845,0.0019493458069546805,-27.046633942923357,-2.5329544248249405e-05,0.00012072064209140437,-0.0008867306349918718,,,,
7.04,-0.0011555127149954342,0.0026170059998683005,-27.035547616274073,-0.001440083978802865,-0.00016581432668623928,-0.001732128398248323,81007.97701353664,,,
7.05,-0.0005220998693266621,9.282284363055086e-05,-27.016680809735558,-0.0006648012683344686,0.0009980567708174038,6.705695266160835e-05,,,,
7.0600000000000005,-0.0031552952558976228,-0.0007349776048381985,-26.995733493296708,0.00023582623789263486,0.0013718007527531951,0.000437269078519044,80967.67073980773,,,
7.07,-0.0007186111256440641,0.0013943021158842471,-26.98099678819723,0.0007973464296943583,0.002131645499244172,-0.0005082693436994928,,,,
7.08,-9.036584601459666e-05,-0.0005351585197953679,-26.970653860159832,-0.0005092869529553952,0.0003035059509236029,0.0008205573996088799,80926.19656031793,,,
7.09,-0.0010509289833414391,0.0003792418727808407,-26.943920033588864,0.0001226822388495272,2.8122182508145864e-05,-0.0009305942031137847,,,,
7.1000000000000005,0.0012933584945181596,-0.0032983665401335053,-26.93054244274776,-9.807835976936362e-05,-0.0004644961261792818,-0.0009572613014836926,80885.26800885977,33.49861633236778,-99.33764713543447,1859.8556131147536
7.11,-0.002502526152274908,-0.0017911481314262037,-26.913171945305017,-0.0010409269470365737,0.001618907186088445,-0.0021537288685624396,,,,
7.12,-0.004650569252239985,-0.00024023694979558168,-26.903064235631977,-0.0011692444546344966,0.00010618858330466868,0.00021496246077910676,80844.44987584575,,,
7.13,-0.0006946855983783152,0.004186849439815322,-26.886703581651272,0.0023613809824580253,8.229830307703088e-06,0.0006877334964405413,,,,
7.140000000000001,-0.0056897742868611476,-0.007203053805619174,-26.878039041204698,0.00028756362740382324,-0.0012625766092176488,-0.0014393910874271087,80803.99897391423,,,
7.15,-0.002405978520626546,-0.0049838188613670256,-26.85660200783859,0.00031103524364947617,-0.0002521229774712088,-0.00048170061422453126,,,,
7.16,0.0057986452482146,-0.0008296872312882635,-26.847805167259917,-0.0024105402579087626,-0.0024031029798607237,-0.0006477750044635332,80763.7316287344,,,
7.17,0.0059573748250436095,-0.0024884165331294987,-26.832661895530485,-0.0011140921591326408,0.0004574038111091156,-0.0004446079870585711,,,,
7.18,-0.00390831478487996,0.0002952993036974782,-26.82407398696956,0.0007502242109646999,-0.0012197679380641809,0.0009416381805573472,80722.30344267294,,,
7.19,0.0032973725095747416,-0.0011825034479944717,-26.80882299906513,0.0005997963402347318,0.0004871562029701541,0.00039771803835950836,,,,
7.2,-0.007007493548958202,-0.0024743923563746205,-26.793971400641357,-0.0007754239662015282,-0.0003917968078916265,-3.197654998071526e-05,80682.2592279981,33.49863022902602,-99.33764961418709,1889.2999343854021
7.21,0.001379030735305608,0.004533198739274048,-26.781574232037816,-0.0011209284588270952,0.00013224259121785934,0.000599101424194684,,,,
7.22,-0.0010425781650790884,0.0008377069720581457,-26.757876612796387,-0.0009817491946424986,-0.0023235215664024586,-0.00020254637002603855,80639.99927433679,,,
7.23,-0.001566808886279676,-0.0011182572469408292,-26.74252458630596,-0.00019939063568979827,-0.00011693197621659094,-0.00040585879277181075,,,,
7.24,0.002607655539711369,-0.0004895358234322674,-26.729240716383202,0.00019485132881022217,8.350046256520766e-05,0.0003203165558651247,80600.80940538661,,,
7.25,0.004267581454209983,-0.007114254924545053,-26.7089201144872,0.0010914446886490488,0.0013168089056597593,0.0011259475535838582,,,,
7.26,0.003405596758330149,0.001957644190311476,-26.687916385511397,-8.752993713987997e-05,0.001282106100770117,-0.0005204012884606145,80561.4440640322,,,
7.2700000000000005,0.0008694620681089935,-0.00017479944384014953,-26.680210103586166,3.409327149920492e-05,-0.0005490749221674757,-0.00022503258363611354,,,,
7.28,-0.0008719721662992589,0.0008372067011802029,-26.666700466971108,-0.0005623326162450653,-0.0006713185850109881,-0.0017759480674786772,80521.35268636672,,,
7.29,0.005616647733731674,0.0014578804805420293,-26.65165177716668,0.0013193826628623779,0.000276634133119939,-0.00021309104383906063,,,,
7.3,0.003038078878059301,0.0035728551129504734,-26.643698553720483,0.0001837323401860835,0.0011854281429256115,9.481670037577728e-05,80481.43315960604,33.49862558158512,-99.33763109064691,1901.7467631623877
7.3100000000000005,-0.0022527866908914665,0.001617853738403225,-26.629808004669997,-0.0012375721286097619,-0.0002972667648273242,0.000786965277842933,,,,
7.32,0.0018725455217170931,-0.0011894467561323612,-26.60533051795061,-0.00015946890985467016,0.0013017262422264121,-0.00011713166276816091,80441.8927177499,,,
7.33,0.0006927538927029604,-0.0016495148343045785,-26.590187060275767,0.000380696326953767,-0.0006242007016704073,-9.408472854273804e-05,,,,
7.34,-0.005250472567962908,-0.002010457307223291,-26.576491905986007,0.001405492020932587,0.00018746516493303616,-0.0002506765406538278,80402.41105665952,,,
7.3500000000000005,0.0011265169808613081,0.001329903950339376,-26.557013688606062,-0.0016919564032660387,-8.767158805391105e-05,-0.0007922298435098942,,,,
7.36,6.402276160921522e-05,0.0010758571091180533,-26.54305605668571,0.0007526561671337736,-3.7640597612113216e-05,0.0003646989502914165,80362.68000192619,,,
7.37,0.0019256359651131903,0.0027047899226196413,-26.535667390526655,0.0011016775128571425,-0.00033155935742952596,-0.0006285240296522968,,,,
7.38,-0.00021938650078443794,0.0022530313631123275,-26.518711747350334,-0.0007990036694292972,0.0005518462049539044,-0.0001289930127036961,80323.20076113766,,,
7.390000000000001,0.002376052141470143,0.0029854770382768863,-26.507054404759835,0.0017731520872519713,-5.222016297756336e-05,0.0010715814488326334,,,,
7.4,0.000704099635224448,-0.006749989855346377,-26.498406098798057,0.0008410360097149675,-0.0018590463425597235,-0.00011433820510226911,80281.95983135216,33.49862721095887,-99.33760145173021,1917.2940970784794
7.41,-0.0010225842152874543,0.00021338359696556738,-26.477491742893886,0.0019406271058435517,0.00021584450325292005,-0.00036989849925305374,,,,
7.42,-0.001633202210846863,0.0010717508611204434,-26.469598755089073,0.001241260081286197,-0.001345427802041536,0.0003714935545295278,80242.9859931116,,,
7.43,-0.0007367837298455798,4.585469269391682e-07,-26.449937403507292,0.0005868343889478457,0.00018797895729168624,0.0006401305057952684,,,,
7.44,0.00042901736800907175,0.0010429524137405034,-26.43695364424251,0.0007985129566701075,-0.001434153098724152,0.0006944157560302216,80202.76212540056,,,
7.45,0.0027616405907411917,0.0013759862871471043,-26.430736410111788,-0.0012425853356847262,-0.0018243212818322718,-0.000939460924143307,,,,
7.46,0.0018708976924813679,0.004621276840181234,-26.40928820728029,0.0006815695162863501,-5.543500882453941e-05,-2.6541987749160793e-05,80164.22933362168,,,
7.47,0.002811499235037301,-0.00027132751392469937,-26.39639166444749,0.002592349907260241,-0.0013898432420966001,0.0014814603555096926,,,,
7.48,-0.00337046206607316,-0.0022636074536462867,-26.386479047960467,0.00045622876197596674,-0.0020976396361020878,0.0006361845645196672,80124.1506775345,,,
7.49,0.005761363750417593,-0.0005395434143589265,-26.36260245190634,-0.00040596084718252094,-0.0003133864543489684,0.002225539574798894,,,,
7.5,-0.0018685136205963508,-0.0014425620693846522,-26.349607427946733,-0.00016110772469561234,-0.0003685109631691072,0.0019104353879353959,80086.04688474597,33.49866690022378,-99.33763485417604,1943.4718120755845
7.51,0.003332078161704815,-0.007789439130702652,-26.33625288868475,0.0009794827632943817,0.0004830668117016116,0.0022068672938975902,,,,
7.5200000000000005,0.0018270636859602956,0.0017281668527782828,-26.316626750669286,3.541900803297822e-05,6.526020553271431e-05,-0.0012778273728703904,80045.92962444997,,,
7.53,0.0014350045653805865,-0.002678277074149084,-26.311037838746852,-0.000563762954538475,-0.0010250054914628045,-0.0011143610265426703,,,,
7.54,0.000780739051271405,0.0031345846513811063,-26.300874095647387,-0.0007089184925939115,-0.0004284019645520006,-0.0005835831250664867,80007.57045414681,,,
7.55,-0.0026508305997229157,-0.0018355200546079286,-26.27698126015873,0.0003844386912364432,-0.00020630155294794705,0.002116084956335231,,,,
7.5600000000000005,-0.0021189641621281786,-0.0004810886573622872,-26.269893772375017,-0.0010118939650677426,-0.0017408067372300744,0.00016299535868346082,79969.10071019923,,,
7.57,0.003643621031302994,-0.004868347700920271,-26.256998574162562,0.0004833575723553687,-0.002200083462929208,0.0011890124714948236,,,,
7.58,-0.00124411476116188,-0.001410091320465823,-26.240530904070763,0.0015301442969540382,-0.0018041784337059852,0.0004141876314512183,79929.8486954032,,,
7.59,0.0003185083170596735,-0.00015382052152441853,-26.2202686706014,-0.00040229886926474985,0.0008137358963926505,-0.0004774245786591054,,,,
7.6000000000000005,-0.0017072525386291032,0.0031496813319789496,-26.203801762776404,0.0007599381785192758,-0.0010311390868371056,0.0006788176079832342,79891.14699977089,33.49863844923454,-99.3376189080659,1963.688218165315
7.61,-0.003999442790595373,0.007637857849525352,-26.195129584608896,0.0011562369283569442,0.00020674506095769577,-0.0010207408271906704,,,,
7.62,0.0002452473747461763,-0.003967244741781457,-26.178386126838042,0.0011958341721405134,-0.0014886080638521293,0.0013569390152067193,79853.52473049551,,,
7.63,-0.0016750497076332286,-0.0006241937439910548,-26.1679503228216,0.0005485231765727059,-9.847370957802247e-05,0.00047971009362237634,,,,
7.640000000000001,0.0007512425221876205,-0.0029313880002920702,-26.16106260784048,-0.001473866505715232,0.0011856678582733838,0.0010141545757062194,79812.84758734448,,,
7.65,0.0003571972300442397,-0.0009505394815616508,-26.141291140039215,0.00015435427298220053,0.001418361245153694,9.846160695897476e-05,,,,
7.66,0.0012051296311345013,0.0008266714595965395,-26.135326024191283,-0.0012083048928832277,-3.4746470869636436e-05,0.002696431915748867,79774.58168490168,,,
7.67,-0.00225996027408106,-0.0059075023638625905,-26.119174448613407,0.00015967687200394535,-0.0005919847191448469,1.2219914717674577e-05,,,,
7.68,-0.0017223114276528687,-0.0008783435812887685,-26.107080433325404,0.0004751988553523076,-0.0004997391378323438,0.00020097082799096745,79736.2737887604,,,
7.69,-0.0005443598541840778,-0.0014191769454378873,-26.092654839650592,-0.003067768941453032,0.0011473557502335752,-0.003080282113154614,,,,
7.7,-0.003303290166751352,-0.002471863108285294,-26.082311899438036,-0.0022850044487617337,5.01481530637995e-05,-0.0020521772955422674,79698.27653988922,33.498627718013935,-99.33762061411575,1982.5053016016168
7.71,-0.003569718058248626,-0.00036523067061286854,-26.0730091512301,0.0026369471997998743,0.0001897783896477405,-2.7964258053181286e-05,,,,
