time_s,accelerometer_x,accelerometer_y,accelerometer_z,gyroscope_x,gyroscope_y,gyroscope_z,barometer_v1,gnss_x,gnss_y,gnss_z
0.0,0.002780419212615686,-0.0026267687108056273,-9.77808212291794,0.00035148172024158583,-8.775147030665227e-05,0.0006032477608751809,96453.62859738548,33.498622479848116,-99.33761493987167,421.9826429059873
0.01,-0.00029691527503068765,-0.006381205745993669,16.577431067191785,0.0004136492615499663,0.0007366670583610461,-0.00011672001018373514,,,,
0.02,0.000280494967458128,0.004088505828385329,30.07437631650852,-0.0011624443575213267,-0.00011840849549334923,-0.0006965899764278634,96454.41212589585,,,
0.03,0.001279091915675219,0.002481557213356845,43.5500053523186,-0.0008515655896745684,-0.0013524001719594561,0.0018466923458435325,,,,
0.04,-0.00041014055998852476,-0.0030353111986712324,57.051461283323604,0.00026338162967586487,-0.0008725770695846441,-0.0006399506530518203,96452.82076882072,,,
0.05,0.001624445435096118,-0.000897959186778989,68.57444177880683,0.0011079109817984608,-0.00043777835920974967,0.0004260506710492991,,,,
0.06,0.0028962862143463637,0.006246256806385203,80.0827230914372,0.00029065398777203835,-0.0009303205557848557,0.001813851689441248,96452.95104290315,,,
0.07,-0.004905275944548753,-0.0006922606246991793,83.50217383900159,-0.0011731803535625243,0.0016373249706698929,-0.00013010685901822437,,,,
0.08,0.0017519691093888785,-0.00034090701672639446,86.85296338750926,0.0008913391028189796,3.7523148490373114e-05,-0.0011631768019794433,96452.84782357117,,,
0.09,0.003097537880147017,0.00040429915483155285,86.28242010206883,-0.0018942649249502816,0.002005254334420769,0.00030350355992731735,,,,
0.1,0.0006246703551179915,-0.003997684826012481,85.67421926237338,-0.00022818500638603227,0.0010832742559736307,-0.00028703105697554536,96450.65016078569,33.498595924336875,-99.33763604800075,421.4852296616721
0.11,-0.0021692155140291525,0.0003377426664088681,85.18299390831206,-0.001035513395177946,5.877751211258386e-05,-0.0008552779028956987,,,,
0.12,0.00269811370277473,0.0002475244116985753,84.686042870196,-0.0004772471698310512,4.080791305776198e-05,0.0003314785232596231,96449.14051948176,,,
0.13,0.0015803238013520997,-0.0014548552115786872,84.40576434478173,-1.5072677337650034e-05,3.260804483508468e-05,0.001636629004637007,,,,
0.14,0.004634138694729751,0.006061749624042524,84.13660524481365,-0.001301045646832151,0.0004939654080851931,-0.0006441197143278194,96445.71433320953,,,
0.15,0.002749413718614622,0.003662118611817944,84.13401201853931,-0.001046053765297995,0.0005172043070013465,2.7567014775982615e-05,,,,
0.16,-0.004785350883921135,-0.00044895525135162735,84.13777355604296,-0.0002609256690738796,-0.0024860993742779475,-0.00102016676824646,96445.38375057501,,,
0.17,0.002538812976760103,0.0033047837982388252,84.25740244404196,0.0008331346805101561,-0.0005628080690613463,-0.0014550671291376665,,,,
0.18,-0.0031692054253789465,0.000414747903257755,84.39025867955877,0.000878780689870549,7.651231218950448e-06,0.0009029260288708472,96440.88153806474,,,
0.19,-0.001697864021588351,0.00017423595119906614,84.37178828484313,-0.0007344761275532596,0.0018192050450508645,0.0005062943936157084,,,,
0.2,0.0027224443979595027,-9.173856979868527e-05,84.3477533742774,-2.662349912603238e-05,-0.001487721826741863,-0.001644660355566811,96437.48854082076,33.498628037813546,-99.33765130962563,416.38301046972236
0.21,0.00555141987522574,0.002030325128700273,84.37777769360771,-0.0004832747390721813,0.0001874669186111736,0.0019568203042823738,,,,
0.22,-0.0002526792258399396,-0.001628236333723662,84.41412351115808,-0.0011105851106198335,0.0011888759701982328,0.0007315185625796334,96434.51841003075,,,
0.23,-0.0026855850839704893,-0.00017943404618883243,84.4569601684083,0.0006996711394804117,-0.0004935733886968943,-0.0006000744447668578,,,,
0.24,-0.0033928702994441597,-0.00037063048582889095,84.5009086356237,0.0013670118931057864,-7.720756024136434e-05,-1.596127175830889e-05,96430.327068058,,,
0.25,0.0021923483917079376,-0.0008647738016310508,84.53984147629058,2.3018720085079992e-05,0.0006181054821773047,0.0004180200434485106,,,,
0.26,0.0006319501655276694,-0.00023051340721770675,84.58732654888534,-0.0010412092324292598,-0.0003096796626637732,0.0005913945220416482,96423.97451409439,,,
0.27,0.004079683733147083,-0.006720939818689107,84.7212750195627,0.0009611893243895156,0.00041266115311615044,-0.0003814397525292612,,,,
0.28,0.0019617580293888374,-0.0005463642515636723,84.87571231734964,-0.001088814460672303,0.00013165943207622883,-0.001425124618473314,96419.58846254772,,,
0.29,0.0007186081164635879,0.002797741613760572,85.02185502921392,0.00031009575389995237,0.0011501505114621686,-0.0008866010556696694,,,,
0.3,-0.0009711810773165324,0.005081961514514856,85.18201027336681,-3.071866843136012e-05,-0.0015407355272844927,0.0010809960911153866,96412.17353196605,33.49861799103914,-99.33761702546364,430.3672026231742
0.31,0.0036674872886017893,0.001472184750763347,85.32033752168473,0.0004505651989979543,0.00035296006317340773,-0.0014060691167510997,,,,
0.32,0.0019139101683967926,0.0002998284823754617,85.47000209387703,-0.0012004717921894343,0.0010256621328106259,0.0006919609323707279,96406.74269158939,,,
0.33,0.004068750933804655,0.0034171851221978947,85.61056436999873,-0.0007179031205715065,0.0008798779978221033,-0.0010621240863114365,,,,
0.34,0.0001237396490606084,-0.0015164610665103877,85.75276937761838,-0.00010606003293537854,-0.00012414917098433123,0.0012396646089277777,96401.06433259597,,,
0.35000000000000003,-0.0021076288719905625,-0.00030916335842973516,85.86516650868457,0.0005722852255689305,0.00132590030827835,0.0004922543895027513,,,,
0.36,0.0005627441175341192,5.745779892521805e-05,85.97203424476712,-0.0009158178183516873,0.0010258778202205622,-0.0007248388110697291,96393.22183119252,,,
0.37,0.003997847236666344,-0.0020502362145273273,86.09201570487107,0.0010887564639504841,-0.00040609710203376583,-0.00019563644553375446,,,,
0.38,-0.005263864759952307,-0.005214635633407841,86.21082321091421,0.000166257642793051,-0.0016363482617965277,-0.0009258639265409105,96386.7452630896,,,
0.39,0.0004177344261489168,-0.0011694925619896727,86.3715170549613,0.0014143405241573588,-0.0002837399236722548,-0.0017675347692329868,,,,
0.4,-0.0011575010128711835,-3.7700529163607546e-05,86.51326375424871,-0.0008239850515524487,-0.00011448846625611433,0.0006174959994078982,96376.65638188431,33.498655258444614,-99.33763023343391,418.0111201177855
0.41000000000000003,-1.5562211715593686e-05,-0.001520490249284905,86.85080414396889,-0.0003638424152846181,0.0003720359490380586,-0.00018701361845287228,,,,
0.42,0.00016588601433763776,-0.004966605529591531,87.19294914916594,-0.0005886630521895181,-0.0018011642203625189,-0.00022387283548066302,96368.81964093215,,,
0.43,0.00026377828013070124,0.005203000036456701,87.33052782001921,0.0012354615147208926,0.0006847331357035731,0.0013505918748786038,,,,
0.44,0.002856347173350924,0.0022357777055287825,87.44334422301101,-0.0008864697855278368,-0.0013624470837249156,0.0005016113404505182,96360.99087510268,,,
0.45,-4.483352469330434e-05,-0.0009975563140414286,87.61110686162519,-0.0001817332793147739,-0.0004702038826268099,0.000571100832721076,,,,
0.46,-0.0009439806672421221,-0.0026278603759423646,87.7786510439044,0.0017227027780301126,-0.00018556214791154815,-0.00022247840373383417,96351.07200073508,,,
0.47000000000000003,-0.0057062074065772125,0.004297415428120856,87.8877615904541,0.00110232973769455,-0.0008554574376040928,-0.0006019745791004766,,,,
0.48,0.00037686146170189545,0.004335746946402643,87.99047751392233,-0.0005153153115654359,0.0008041226678056585,0.0022822060697381937,96342.82306239691,,,
0.49,-0.005327404958976691,-0.0003950468409571767,87.93207809153225,-0.0003376214287283521,-0.00026146743616722304,-0.0009702006253497186,,,,
0.5,-3.721713258643391e-05,0.0013602975734921792,87.86444914158824,0.0009162381350046667,-0.0021603737544816123,-0.0010714114905626521,96329.91202422652,33.49871202767828,-99.33755670286351,427.5762196014891
0.51,0.0004386850975766054,-0.001924034837537088,88.07228955118373,-0.0006798537487900168,0.00035931383971453667,-0.0010404365322167395,,,,
0.52,0.0028075863825607105,-0.004117773318679408,88.2966055270395,-0.00015840510815926507,0.0006425093938115318,-0.0006429591361406058,96320.66993458095,,,
0.53,-0.002722191222350739,-0.00021454074638957074,88.50863589222017,-0.0004839724074509051,0.0028961045233465116,-0.0005937460016070811,,,,
0.54,0.000769281429213875,-0.00021099085294286243,88.70795414553149,0.00038784500349898756,-0.000988314973958161,-0.0009413925564545028,96309.35057134721,,,
0.55,0.0014659783111633528,-0.003181059472353642,88.95395870865468,0.0015587481736846962,0.001048648707199608,0.0005004568751116799,,,,
0.56,-0.0022704646178624195,-0.0036832443178651465,89.19675386402703,0.0008422259802058724,0.0008450525471350464,0.0007822345616960968,96298.6955263047,,,
0.5700000000000001,-0.0007411711598033663,-0.003808508276010688,89.39629480904377,0.0008130242912224604,-0.0011606535168256099,-0.00019053179073659341,,,,
0.58,0.003419073047445565,0.002998590097490232,89.60019767382168,1.2023020872178773e-05,-0.0007557738054574227,0.0015704072918788173,96286.83179738464,,,
0.59,-0.005733100689185722,0.0010611908917780683,89.75957309416577,0.0012934245731594848,-0.0006051390308694079,-0.0014513157545216523,,,,
0.6,0.0012052175747112198,-0.0007327863583249446,89.91992189507465,-0.0007388094301081844,-0.0017397525229963877,-0.0010916883709169445,96274.09321435045,33.498652019572376,-99.33760674752513,430.94129743258924
0.61,0.0009236483323576078,0.0030825395369169285,90.0633013138754,-6.689923994306452e-05,-8.013732048751085e-05,0.000989248585546893,,,,
0.62,0.0017698748011626675,-0.0028941886186196757,90.21206804041485,-0.0015253028847485855,0.00016928553853154567,-0.0005569204440486736,96260.38560490806,,,
0.63,0.003356475964137981,-0.00040472047269890873,90.39329297978858,0.0009819797708416796,0.0010775249679410724,0.001472031094671651,,,,
0.64,-0.0050470167538625346,0.0026533594565702227,90.57847169906543,-0.000978673423230737,0.00027120235377567765,0.0016581499967160426,96247.39835383923,,,
0.65,0.002742255451196149,0.00458283973260843,90.8360698571731,-2.6587185111953436e-05,0.0002962851176876631,0.00038497945947996913,,,,
0.66,0.0023829593768213394,-0.0027365007221055696,91.08436101819576,0.0008471467120595778,-0.0002311657039329082,0.00043061411719138513,96233.91377029227,,,
0.67,0.002462267041440846,-0.0004014635629276389,91.37884040538474,-0.00012098243678890888,0.0013485761784644903,0.0007934419016657867,,,,
0.68,0.00014836549711493783,-0.005465430152647929,91.67143653661054,-0.00044241879663807395,-0.0010295270622427326,-0.0014158004903687166,96218.33692456607,,,
0.6900000000000001,-0.0014258987015405853,-0.00256618773200876,92.00222276821383,-0.001363072315623589,0.00014163721139600366,0.0004066303416761141,,,,
0.7000000000000001,0.004876326382096973,0.001625310418002823,92.33820641717759,-0.0006867139919077755,-0.0007319600830458056,0.0005391643258564492,96203.95899112156,33.49859068212569,-99.33762226388397,437.0391656239906
0.71,0.0008966200906637124,0.001097334563969318,92.70743137381339,-0.001450356305269685,0.0014826339157820508,0.0007654056876345444,,,,
0.72,-0.005603067010799596,-0.0012390578145836536,93.06881173156998,-0.0012969961571493865,0.00043648603484855246,0.00026093048621124215,96187.33139460573,,,
0.73,-0.0021898402252318204,-0.003566040730401281,93.465857359079,-0.0006863106047143067,0.0005372915315752822,0.0005220835837579341,,,,
0.74,0.002736977365319872,-0.0018777915582486792,93.86608571367591,0.0008637960888061857,-0.000527808100679425,0.0006268066733255421,96171.46154635694,,,
0.75,0.0007112385188546882,0.0032674406355017527,94.27805362702398,0.002404302477812994,-0.0021669684653978323,-0.00031880073830541257,,,,
0.76,-0.002285150266972807,-0.000866305045081101,94.68861669897214,0.0002660156922146098,-0.000838969602086426,-0.00041194208051428295,96157.61669709346,,,
0.77,-0.00036958700523329193,0.0074629809290314405,95.10793142130034,0.0007349473168159254,-0.00019525888561915805,-0.0009646467638001029,,,,
0.78,0.005273615380191826,-0.0001718245116978659,95.53128096227186,8.323643887656287e-05,-0.0028665906482006807,0.00032779473075481903,96139.4368589798,,,
0.79,-0.0012590999370759132,0.0012682111913209476,95.91945691374653,0.0009416019627998816,-7.453169157739235e-05,0.00263079307508552,,,,
0.8,0.0011142520354822177,0.0030112269307920685,96.31354464509772,-0.00154252747642555,-0.0015167467523983528,-0.00021163006374462812,96122.35145313026,33.49858755627196,-99.33759039434209,440.18483535211084
0.81,-0.004637099061731423,0.0008689458822880284,96.66311685383825,0.0018990489292061668,-0.0008514634872227675,0.0006788707724372006,,,,
0.8200000000000001,-0.006661670701320439,-0.0031593673719302914,97.00636986630549,-0.0007031941207815406,-0.0007685722220809812,0.001327452561913711,96104.30384469377,,,
0.8300000000000001,0.001334438247278325,-0.004291583287151001,97.2916623311461,-0.0011016382786116262,-0.0011668661143892595,-0.0013960468662849337,,,,
0.84,0.0009946767855526354,-0.0002565484449979363,97.58128551352563,-0.0006801085209093801,0.00011624290419340283,0.0006384791258704309,96086.58736169626,,,
0.85,0.003354133231634054,-0.0021538963345405504,97.82750563467799,-0.0001472682011059692,-0.000994265283903644,0.0009733376341599942,,,,
0.86,-0.0005006422639584458,-0.0023576820010094827,98.07377050631786,-0.0003933591764761183,-0.0014749267444163715,-0.0006678622578533973,96068.28747904308,,,
0.87,0.0025297397671322436,0.003300406964955811,98.29001032988617,0.0020859256549499165,-0.0012272273254907754,3.788159559139874e-05,,,,
0.88,-0.004599943526380936,0.003229635689315386,98.51907542394366,-0.0005358762463201204,0.0018978148267402236,0.0006661651243500828,96047.4665120445,,,
0.89,-0.0030866532819099545,0.0013779604550783408,98.7350345538828,0.0008359014801346804,-0.00014032815606145583,-0.00015417726351297907,,,,
0.9,9.591649458418484e-05,-0.0038486060367700094,98.95139994509448,-0.0006057867322555013,-9.088292307652845e-05,-0.0003841687414920549,96028.63652963832,33.49859493524975,-99.33761574964244,457.1018412563025
0.91,-0.003419030217284148,0.00181415061700016,99.18197817837256,0.001585598237721918,0.0009097032559352403,-0.0014068246400884084,,,,
0.92,0.002906483649708868,0.00430559092261552,99.4155567278368,0.00042649382656093375,-0.0001144029416547744,0.0008393018652796692,96008.11530489342,,,
0.93,-0.002407516606364029,0.0007084672051936362,99.62721135796124,5.446115188403578e-05,-0.00028540430973749174,-0.00011188051125407009,,,,
0.9400000000000001,-0.0025700439763683917,-0.00013195290735975917,99.83793763034735,0.0009346175353995125,0.0002037757588710419,7.34864724690931e-05,95988.21536379817,,,
0.9500000000000001,-0.003686832238543714,0.0057298028643518835,100.03193173957163,-0.00039035717868323106,-0.0002568512124418072,0.00047315117230754686,,,,
0.96,0.0011468481637970337,-0.002612880755695274,100.2169593734495,0.00100666610309972,0.002501201026029091,-0.0002571487342657897,95965.4290723104,,,
0.97,-0.00035626513976738216,0.0020413225762173338,100.37014407117395,0.0006913990049120705,-0.0011967524157956962,0.0017363405328333348,,,,
0.98,0.0009254639816832454,0.0028353185718430806,100.50606447027259,0.0002490321356589245,-0.0005090043228232764,-0.00287392121560499,95944.79566810156,,,
0.99,0.0011074542586232896,-0.001018086702595779,100.58375005790795,0.0002771592030977087,-0.00024246067314398313,9.373997712535568e-05,,,,
1.0,0.005935268729170686,0.0018454473515353642,100.66832730558333,-0.0015972212474059044,0.0008541427050251603,1.661857803047197e-05,95922.06601666367,33.49862137372253,-99.33762219526974,470.541520581055
1.01,0.002793177123518295,0.0006695150685074475,100.70813415184645,-0.0022371983017542138,0.00046226913344272645,0.00043975409440540156,,,,
1.02,-0.0032416710303358478,-0.0029639125440712373,100.75754318442208,0.0016491519985956074,-0.0004599506857653336,0.0010007305037893369,95899.96026446669,,,
1.03,0.001992051890563308,-0.0006685993721557935,100.80572542617564,-0.0013131925783171653,0.0003979902319284825,0.0002859994745932691,,,,
1.04,-0.002295983600838655,-0.003150930095043046,100.8564288189946,-0.0005231986350801049,-0.0006811343003261883,-0.0008580269450906796,95878.11433389095,,,
1.05,1.944626607209694e-05,0.004040109589844277,100.92584941330159,-0.0005916008517492077,0.00027903959612773894,0.001083002488410581,,,,
1.06,0.0026222452877531347,0.00032931086974013346,100.9974451013648,0.0004026131031256796,-0.0013521034019010503,-0.001487981330809353,95852.75265762431,,,
1.07,0.0021555284697868924,0.004374672089955838,101.10291041339654,0.0008555086820006544,-0.0006629913581317139,5.2017202302570976e-05,,,,
1.08,-0.003923562755848325,0.00472882037166064,101.20996033348463,0.000530767089064784,0.0005557453104055698,-0.0005082380319024043,95828.80356788414,,,
1.09,-0.00048409310656583884,-0.005813193805785383,101.33581469256056,-0.0009296482942785385,-0.0008896945633849037,-0.0012454960614101689,,,,
1.1,0.0004971937419132336,0.0009450362085029382,101.4544235631662,-7.618394303607538e-05,-0.0001866404419000673,-0.0004167865576380978,95804.2950148781,33.4986542540195,-99.33759275203643,479.86988341158235
1.11,0.003273476843354738,0.004004770674091058,101.56424502576176,-0.0006253264389611527,0.00015285233280907165,-5.537381995626338e-05,,,,
1.12,0.00011332347588801487,-0.004616549809776813,101.67406913843186,-0.0006732142023055127,0.0013452229944998675,0.0009630793409957419,95778.62120440695,,,
1.1300000000000001,-0.0010490947522417142,0.0015049904364936206,101.75917595359576,-0.000903730086608242,0.0006485421893576678,0.00017643124490113892,,,,
1.1400000000000001,-0.0004661162710612998,0.0027755043334975384,101.84405631046408,0.0006121127838729268,0.0007335693254142451,0.0006159380364729269,95752.51905857137,,,
1.1500000000000001,0.005834799815906136,0.007676670245208975,101.92062690182387,0.0005335585054922809,-0.0003577902874843917,-0.00048805275839760605,,,,
1.16,-0.002476884264746016,5.595756859851611e-05,101.99343433662996,-0.00025536368092588543,-0.0010964557643365542,0.0007282847616246696,95727.88737389269,,,
1.17,-0.0026886360024108782,0.0005166497837903215,102.07521621280358,0.0007896148357887162,-0.00076170853215629,-0.0018350225300739877,,,,
1.18,0.0024330603545474655,0.001905140026059776,102.14340031413035,-0.0007256652467449692,-0.00039116993125674454,-0.00040547543715743577,95700.34789585228,,,
1.19,-0.0010019976737712741,-0.0027794979591293607,102.23447596967323,0.0006405538576505058,-0.0011285033781058267,-0.0004823506393614298,,,,
1.2,0.0012073816096929034,0.0025326546887359676,102.3175384159836,-0.00013119773915159583,0.0004265286901752001,0.001947253578967457,95673.1681125666,33.49861560689219,-99.33755333215085,494.8616216257755
1.21,-0.0014306250162320858,0.0029880139050520982,102.40119753181358,0.0008466445669966644,-0.001013861021331186,-0.0025058734610976744,,,,
1.22,0.0003880654807251995,0.003006717534373871,102.49094494320101,0.0008126264763615294,-0.0004369802000855247,0.0012893234976696318,95644.93284294746,,,
1.23,0.0020925115177094764,0.0025737842658906753,102.56576973004147,0.0004761919375515886,0.0008501323776897416,0.00024078202367194904,,,,
1.24,0.0012239474153125736,-0.002543294640378079,102.64272748397146,0.0005978472517140194,1.384304883148736e-05,0.0010360132218675024,95617.22646996855,,,
1.25,0.0008116538260870164,-0.001376339663250823,102.70379558714677,-0.0012425079030766676,0.0004829281262786755,0.00037662076413339955,,,,
1.26,-0.0010194918841462308,0.00039451911659364226,102.76168045409288,0.0009489389328549705,0.00039789988052341076,0.0013069125972111255,95586.896311027,,,
1.27,-0.0026839624779992784,0.00041089774696002716,102.80571505379109,-0.00037050448365960376,-0.0014919656523352588,0.00068472037178799,,,,
1.28,-0.00383217749249453,-0.004530146081537435,102.86021041289239,0.0007172180112696837,0.0005944884243237417,-8.964217852120955e-05,95558.94815482892,,,
1.29,-0.005758263777736149,-0.002164906100370073,102.90635071655043,-0.0011709913185189165,0.0002189165233454994,0.0014123498301455964,,,,
1.3,-0.002238465180901713,-0.0022622731434283265,102.95576720012637,0.0008102611521408951,-0.0010762676521165854,0.0002049990330605544,95527.32922251907,33.49867742700572,-99.33763186211237,496.8579240057363
1.31,0.0002698261878231033,0.0006886649765068323,103.03237386410255,-0.0010485981402207063,0.001742593678970971,-0.00038625654072205233,,,,
1.32,-0.0012161835925356941,0.0029558180463117607,103.09867153768577,-0.00016536756919357054,0.0008407170370002732,-0.0013622542825195059,95499.64826652095,,,
1.33,-0.00227565131024814,-0.004326321796888146,103.19973940879899,-0.00033551917713266845,-0.001002794933631829,-5.552615736060372e-05,,,,
1.34,-0.00020091303020033406,-0.0006826008361248575,103.29365098297248,0.0007641366215674135,-0.0004701559265163575,-0.0007768143004341117,95467.09123748326,,,
1.35,-0.002942513830381166,0.004686092548919383,103.4128520881811,-0.0007396484765619327,-0.0014903505117762534,-0.0007736261740063847,,,,
1.36,-0.00021454972914921154,0.000815319188389895,103.52982172378576,0.00027390502493749083,-0.0014137891768286625,-0.0007450132155953644,95435.12705527498,,,
1.37,-0.00013193595947004315,-0.0007073120294128892,103.66620669262784,-0.0013574713102135,-0.0012530298439380916,0.0018448789689125666,,,,
1.3800000000000001,0.0033166002492001126,0.00019532224617081783,103.81316949312746,9.162657772255527e-05,0.0006281490248076979,-0.0014529187196973294,95404.61355549684,,,
1.3900000000000001,0.0019281074489110226,0.0028144138317831822,103.98146499774771,-0.0006385206457145226,-0.0003825999917363638,0.0008881145281321322,,,,
1.4000000000000001,-0.0021816494170351624,0.0046856629074031346,104.15033963771982,-0.0015556580800296493,-0.00039751038029744654,0.0008534195983821325,95371.57389153967,33.49863222626997,-99.33762627829626,504.838866142084
1.41,-0.005599545193118644,0.0008762841844451798,104.36956197417709,0.0005589330783358315,0.0034782722685272236,0.00017744911389125771,,,,
1.42,-0.0014344360280588964,0.000597906288549474,104.58696342920663,0.0011423747791583325,0.0003297116821454542,-0.0005374785988143515,95339.57817232393,,,
1.43,-0.0016695987257005238,-0.0008639913259769664,104.74978106974524,-0.0007128910832492425,-0.001334659395911772,0.0017108688037428428,,,,
1.44,-0.002914886349251725,-0.0025824660084598793,104.90247415903772,7.885697254406791e-05,-0.0005633157603477082,8.120613471424583e-05,95304.78027335557,,,
1.45,0.004277953203676072,0.00030951293794421526,104.98648975757261,-0.00022693339079345518,-0.0008221688833011477,-0.0005164841484978305,,,,
1.46,0.0001235884158228559,7.606411225120979e-05,105.05768714990997,-0.0004199077856312675,0.0016457481683965652,0.0011700756080849227,95271.23742521125,,,
1.47,-0.0017458344421908913,-0.00276901460784992,105.03090550276858,-0.00031623498973998857,0.0026730330247004717,-0.0008728636459118895,,,,
1.48,0.006883907789154612,0.00019976428568656596,104.99391671326453,0.00130893813480957,0.0006788688726347628,0.0013280418753085575,95236.38371258104,,,
1.49,-0.002416877739092646,0.0008796335385761015,104.9034637294005,-0.0010071069674500725,0.00011096730061383441,-0.0006877739787393704,,,,
1.5,0.0009006269525711663,0.0019506298602442987,104.80344494483047,-0.0004682703786837443,0.0006478771968676083,-0.0012917473078399946,95201.23845035398,33.49867927558207,-99.33762559340316,524.8817872553376
1.51,0.0018748717879636355,0.0046706909621177664,104.74246632899839,0.00036896447233363797,-0.0008439004238694736,-0.0005493992870903679,,,,
1.52,-0.0020428552286676023,0.00296877209649841,104.6801092554936,-0.0013346598997467294,-0.0007644107922677688,-0.0024781619156786995,95165.39411113798,,,
1.53,-0.0025072447321785193,0.0032504417275808707,104.66160905256847,-0.00016343584197708915,4.743581820737632e-05,-0.0002086799687554858,,,,
1.54,0.0007221411708696378,0.0015236684904024857,104.65473587206914,-0.0003031568047573024,0.0009020955649412215,0.0002945807038908837,95129.49971739748,,,
1.55,0.012006063190960444,-0.005722273644497496,104.65775269945055,-9.998735887908852e-05,0.00028617727718101494,-0.0001563664596638442,,,,
1.56,-0.0032364385898295406,0.0014417230434159653,104.65248549406945,-0.0005280608341032931,-2.8877931581174396e-05,0.0008080130816187881,95092.38878025147,,,
1.57,-0.0002128226038421879,-0.006483693332678616,104.61793281017434,0.0010699472369009428,0.0007038569126899811,-0.0003705915022013396,,,,
1.58,-0.005085920043483805,0.004910645253203271,104.58425794295309,0.00038494771640549023,0.0014631008337582783,0.001307396856923976,95055.75045695822,,,
1.59,0.0026516285611071413,-0.0017778632774457252,104.48996960516979,0.001711587970612134,0.0007143167795866185,-0.00033315458697416323,,,,
1.6,-3.437396505760765e-05,-0.0005681534724764669,104.39739611464387,-0.00015022490147240417,-0.001058875416671071,0.000499086799895481,95019.07189913938,33.49865131102571,-99.33760187338396,541.0816925074223
1.61,0.00244761457628128,0.0009848040850393364,104.2438246593442,0.0022199779357109472,0.000570774989019839,0.00022682219124346088,,,,
1.62,-0.006082152028230958,-0.0057575420216824215,104.07717028331334,-0.0010525956399627802,-0.0008845871766206063,8.465697105621288e-05,94979.45091729674,,,
1.6300000000000001,0.0015115444671583535,-0.0016155948631474356,103.86979750940051,0.0008799317760905202,0.0002683456610714696,-0.000933076434533254,,,,
1.6400000000000001,-0.00203403397129358,-0.0017427527183496536,103.6766771503823,-0.0002521509012455408,0.0004711709393643995,0.00025735736605330734,94942.36667428819,,,
1.6500000000000001,-0.005875397537716035,-0.0015578971350281592,103.48602217909932,0.000132533999026361,-0.00010381971127808879,0.0014989943153513499,,,,
1.6600000000000001,0.006644183315157353,0.0013760142270799881,103.291640646034,-1.5374663319573424e-05,-5.344889549247036e-05,0.00042297127067246834,94902.43317711113,,,
1.67,-0.0007834331131747723,0.004022613665578161,103.11517271166885,0.0006454518366727898,6.997383173930471e-07,-0.00037205903899177443,,,,
1.68,-0.0008562335517954071,0.002440254348470833,102.94075623371151,-0.0010428394363746329,0.0003052473642983333,0.0016034769329821422,94861.05226761672,,,
1.69,-0.0022681093246043954,-0.004423016781342743,102.76872270071338,-9.082588948723593e-05,0.0012566599633707168,-0.0017042442303838597,,,,
1.7,-0.002268571181398721,0.0031178784648507427,102.60322197274039,0.0010407135740076359,-0.000151924522542852,0.001470510229931819,94821.85892985109,33.49865229831507,-99.33755965270603,561.7653693271043
1.71,-0.0008755846208699257,0.002439169985574403,102.43855997706703,0.00041509139368097446,-0.0010535234484810026,0.00012828631988004617,,,,
1.72,-0.0020148388880773115,0.0036037716521431693,102.28239424385127,0.0015054550466471093,-0.0014553430576720878,0.00022352998357850164,94780.98534183383,,,
1.73,-0.005038412659481371,0.002806289923845302,102.1207553452196,0.00046144920522238206,-0.0006920708446568754,-0.0023249225918987888,,,,
1.74,0.005189752835652026,0.0007690437845654075,101.95513382172078,0.0002960457261659697,-1.8198840557680945e-05,-0.00017972814539755333,94741.09180543479,,,
1.75,-0.004873760309287854,-0.0005905995354550199,101.82164700527785,0.00020106711064207848,0.00017338307769143203,0.001350814987605469,,,,
1.76,0.004002969265400175,-0.0020681639499769027,101.68161842920097,0.0003310500791967606,0.0015253278070328801,-0.0013172752197652454,94699.83786320848,,,
1.77,-0.0023407381449965037,0.001045812981400484,101.5624844003208,-0.0012287296170518205,-0.0009102536899999406,-0.00012743973059550765,,,,
1.78,6.821255894498252e-05,-0.0006919423239042944,101.44677907757993,0.0001336607184303111,-0.0020463153686632487,-5.7142737530772683e-05,94657.5193115879,,,
1.79,-0.0032324859575966125,-0.0013224518308512067,101.35073717857671,0.00037998455193830744,0.0006379664878777404,-0.0012903865242635043,,,,
1.8,-0.006261737908567994,-0.0030089880345867646,101.25260140816394,-0.00035341554004203826,0.0004368859983375557,0.00038857359005803555,94613.4244418573,33.49862895868453,-99.33760098019258,574.4640917551745
1.81,0.00017382778222167677,0.0016280021679641137,101.15051472555741,-0.0015141518251665317,0.0002803590769058285,0.0007809117440462591,,,,
1.82,0.007601260361501167,0.0012154412035260186,101.03577736106041,0.0010231841726147447,-0.0007777728753527778,-0.0006029211741997258,94570.79476273348,,,
1.83,-0.0023077142599884338,-0.0006179458468313262,100.88050671568021,0.0005373159869087096,0.0008013476767480719,-0.001202424764514232,,,,
1.84,0.002491363370341617,0.0019957960339925733,100.72850514308684,-0.0004245450264715188,-0.0007424373447835964,-0.0010684850469305888,94527.51680507122,,,
1.85,0.0006225294309504982,-0.0007875352030171968,100.50308316460422,0.001293472041044654,0.0009347289055561873,0.0008366643150899421,,,,
1.86,-0.0023107415469689934,-0.0008745976753837067,100.26815634707367,0.0015688538829413722,-0.00017608421315643151,-4.362953679378755e-05,94483.33589429414,,,
1.87,0.002519773840674536,-0.007467378342551148,99.98030872972248,-0.0006601420338347424,0.0011352478974763773,0.00029537791177247077,,,,
1.8800000000000001,0.006207826527411536,-0.0047270763299588,99.68440155969579,-7.653887515535952e-06,-0.0006833227182444445,-0.0008128478438152467,94438.65174901673,,,
1.8900000000000001,0.0018657580807569692,0.002583518502121048,99.35971750104446,-0.00015012719856700432,-0.0017865619620840837,0.0014800325320215542,,,,
1.9000000000000001,0.0002881412291114017,0.0008121385520470838,99.03531458004106,-0.0018808961006777038,-0.0013731786391449736,0.0007532483275850855,94393.0917088614,33.49863086864927,-99.3376641945053,599.5895114440852
1.9100000000000001,0.0014320420313632953,-0.0005736466827013228,98.69483246472774,2.9456183871505773e-05,-0.0007056633322058776,0.00039459016531459703,,,,
1.92,0.0014636216318676717,0.0019253046743836805,98.34107186316466,0.0009611322143255315,-0.0012129777764027937,0.00018556256942414077,94347.92219289772,,,
1.93,0.0001207527042004331,0.0015297993000861797,98.01622203455752,-0.000248058872419354,-2.2321362789719607e-05,-0.0013388778789994575,,,,
1.94,0.005367820570945127,0.005490897931649029,97.68549551395617,0.00023923604663848145,0.0009081557213635008,-0.001564607966149076,94301.7369893161,,,
1.95,-0.0004919611283157071,0.0019234961165448933,97.37011699702884,-0.0007157030112469703,0.0010892497918860474,-0.0005044863012230506,,,,
1.96,-0.0018305729887701876,0.001799747051398612,97.04532024772405,0.002338659652662253,0.0001818670385731744,-0.0003869186566423622,94253.67761184869,,,
1.97,-0.007147312941807535,0.0006416838975328795,96.68539085028989,-0.0002777268748587244,-0.00012537301837720337,-0.0006593361729342249,,,,
1.98,0.002548350235412887,-0.001684680064465914,96.33188536881815,-0.000929286152545869,0.0002850143611716473,0.0022071737374257973,94208.98027992077,,,
1.99,-0.003280639179336926,0.0036300299154954064,95.94644872324733,-0.0006130222211031196,-3.153035769400203e-05,-0.0004416744554536079,,,,
2.0,0.0036955100390578424,-0.00599013975226658,95.56400368378043,-0.0002592686757974441,0.0006343601713322109,0.00032234285245911966,94160.96155262565,33.498627675448134,-99.33764810177695,608.9825696689448
2.0100000000000002,0.0025377355269167296,7.240054608542684e-05,95.16949630053048,-0.0020747849255695165,0.00048402690617696016,0.00046656440552723716,,,,
2.02,0.00097890089404805,0.008408732474124804,94.76486894343421,-0.001433944938495286,-0.0004591315153126357,0.0012027317222066522,94113.8321272716,,,
2.0300000000000002,0.004321891803860592,-0.0028283867470521046,94.33042581478377,0.0007742024520006427,-0.001477645780961101,-0.0018665627701784514,,,,
2.04,0.0031938462109769496,0.002951875566559574,93.88114621441798,-0.001203328910066771,-0.00027435064310969937,-0.0010120485996356165,94064.58410898791,,,
2.05,0.004245082502316177,0.0037956773831988614,93.35786449276173,0.00014952853439592626,-0.0013134648567811682,-0.00042853586757381,,,,
2.06,0.001857352628247501,0.0007794732256671729,92.82497303270775,-0.0023149446709646274,0.00041344911691512936,-0.0005217687989409644,94015.50957250399,,,
2.07,0.004200157465086403,0.0006080171619951814,92.19487965913561,0.0006164938887147359,0.0004600776400982646,-0.0003992750817723955,,,,
2.08,-0.001276989703406397,-0.0026176995758537057,91.55586314107799,0.0011905780438315324,-0.0019311068715869237,0.0023387867786490955,93966.39945839698,,,
2.09,-0.0007332834932187261,0.004258665271322823,90.85762297494095,-0.00014903283869474427,-0.0020771320652593337,-0.0007054360007513099,,,,
2.1,-0.004392659780134014,-0.004606090093462846,90.15492074874686,-0.00015143720510251652,-0.00014497196696694735,5.350997590976169e-05,93916.95140444755,33.4986000044738,-99.33763771396448,640.2267227326078
2.11,0.004210858162276018,-0.002116926300729732,89.42631444061197,-0.0001190924567800491,-0.0007583255778034231,0.0007465007728645079,,,,
2.12,0.0029998612800467886,0.004862740114293268,88.696575642677,-0.0016281030472848849,0.0005408766059287992,-0.0011298645100031473,93867.35315582484,,,
2.13,0.0007880218723886697,0.0012793558171034327,87.97396151489014,-0.00036598152293437184,-0.0003773927412175063,-0.001102508699901205,,,,
2.14,0.004508699515872426,0.0017954100474796952,87.26000316590974,0.0005546817763203182,-0.0017229241535209132,0.0015395274676853108,93815.79948708328,,,
2.15,0.005372734391965289,0.0008351381894963062,86.60755126625993,-0.0005232634999630247,0.00010189120069770451,0.0010164014064595283,,,,
2.16,-0.001403799809139382,-0.0009081031087818557,85.95944552145852,-0.0013343445218419662,0.0009190254675184102,0.00029844068817541414,93763.48494593537,,,
2.17,0.0010853293900632232,-0.0013475473170395165,85.33589411561319,0.0017634898978883323,0.0009370826561221363,0.0013896999190639346,,,,
2.18,-0.0013426540151817148,0.0031982276937702362,84.72284499987583,0.0008373794658148229,-0.0011135135782389357,0.0005151433146746983,93712.90555348876,,,
2.19,-0.0036742753442175753,-0.0018946053062569635,84.11255613812203,-0.001174088056704391,0.0007972059164428427,-0.0005681755810149415,,,,
2.2,-0.002689782654293315,-0.0006640026555655228,83.4924827421353,-0.00034849907959278267,0.0014435660960743172,-0.00011015166290257765,93660.60033118042,33.498637662060915,-99.33754213072558,662.5090854682483
2.21,0.000747412065238912,-0.001963445677348183,82.91179396429499,-0.00033350176243348976,-3.3942154186900996e-06,-0.00017547406448986653,,,,
2.22,-0.001696190286159341,-0.004463185459540403,82.31712381800827,-0.0016191945844105,0.0007044531687922956,-0.0004923481007461114,93608.55105680828,,,
2.23,-0.003764406520515734,0.0010372391808823433,81.74386999257037,0.00014789693745021919,0.0007047909270178928,0.0017302210798967779,,,,
2.24,0.0015844079285314229,0.003731299939188346,81.16877244120334,-0.0003567949567488514,-0.0001158494447267737,-0.0015497861333930228,93555.56979139964,,,
2.25,0.006322764499956403,-0.0009179829634618699,80.60268353967159,0.0007699066590844536,-0.0009585739814205611,0.0013380074383834977,,,,
2.2600000000000002,0.002249433759493218,0.0007281804211763887,80.0440586230051,-0.0007506161431254191,0.001107627004902428,-0.0015468381927675307,93502.28961926859,,,
2.27,0.0013018255116403314,-0.00034050399631936184,79.53829701433173,-0.0001705416465539698,-0.00023026129378559323,-0.000360247374893305,,,,
2.2800000000000002,9.086314837125277e-05,0.0003520672708793182,79.04381020186764,-0.0002193083597768935,-0.00028642424974511773,0.002303528238172025,93449.79738587848,,,
2.29,0.0013364959494952075,-0.0012526245471472226,78.60555523582784,5.892440166172211e-06,0.0012544558245681935,0.0004525575644923926,,,,
2.3000000000000003,3.575531570396115e-05,-0.004248805520391908,78.17003896488983,0.0007722737898729487,0.0007352834304092527,5.073423603610086e-05,93395.58982092852,33.498598868269205,-99.3376586733236,690.4948877520089
2.31,0.002451070108406319,0.0008893879382306614,77.67664098836114,-0.0014047484350644456,-0.00040223945879712213,0.0005802147492214594,,,,
2.32,0.004864484451622956,0.004383390239177541,77.1784318899081,0.00033673826481664143,0.0014657246664749105,-0.00035435520189279826,93341.68976669705,,,
2.33,-0.0034869213962115553,0.0015135325990797265,76.54980467758142,0.0010777801455714453,-0.00021716623828023894,-0.00022197092337705973,,,,
2.34,-0.003921493231175157,0.0005671723895295099,75.91867473487274,0.0013650646875609737,0.0005640838193960726,0.0007397932682185479,93288.1376665203,,,
2.35,0.00034586633555544146,0.0017168091909560443,75.27883264664528,0.00046186501670877114,-0.0006419776087558285,0.00088951377779554,,,,
2.36,0.0004952405501964098,0.0015173685646637817,74.63614416272824,-0.0001934142452791279,-7.028538656742119e-05,-0.00027678969740093577,93232.2290782318,,,
2.37,-0.0024289721570972837,0.003958596160709533,75.7606525038616,0.0007379734376473426,-0.0014852030875793822,0.0010982102734828922,,,,
2.38,0.002658181314538358,-0.0023618236813257635,77.03851091999067,-0.0001413212230813197,0.0010798148082748202,-0.00022988408573038465,93176.80557296988,,,
2.39,-0.010555306469402165,0.0020943575967228233,76.94048684154544,-0.0006331798126721968,-0.0003034848792068282,2.0031058038918644e-05,,,,
2.4,0.001971552832788478,0.00019556269546933607,76.72814920277571,-0.001013097588757326,-0.0018058531273178857,-7.628062138350055e-06,93121.25219958968,33.4986281592304,-99.33761857722415,708.1717613042409
2.41,0.0025797130670528515,-0.0024412117720309825,73.03765154933389,0.0003532854326952813,-0.0004998284040521461,0.0005386047022440726,,,,
2.42,0.003015991884981538,-0.004159934448476774,69.04945285353512,0.0005592018377640502,0.0007163746269010868,-0.001513300123058211,93064.01039145135,,,
2.43,-0.006126024925485471,-0.0005243235965815362,64.3121636847844,-0.0008615847170764992,0.0018105751749471581,0.001993410655014558,,,,
2.44,0.005204372022643546,-0.0017623626690289758,59.52197321595967,9.475081247856659e-05,0.0010257074217603103,0.0009296633392043747,93009.24189009369,,,
2.45,0.006934625781773782,-0.0023958138445055,52.772163057193396,4.583022404539839e-05,-0.0005545384626371896,0.00017154477548154677,,,,
2.46,-0.0032186311023284456,0.006595685719001389,45.85827132122672,0.00248482996817279,0.002627672702251198,-0.0017613663702543982,92953.03086397832,,,
2.47,-0.003814958928715466,-0.0008096721513674971,40.4094780121186,-0.0006486751588052804,-0.0016069465450957317,0.00030017465495408305,,,,
2.48,-0.006845872429635831,-0.0018136025502294483,35.08141463237558,-0.0016155016674388068,0.00018606751731066443,-0.0002741538182964247,92895.88598056334,,,
2.49,0.004291371270875424,-0.00415773332060233,33.27553550226464,0.0012166484572637799,-4.933628333792841e-06,0.0012038805954501042,,,,
2.5,0.0008023689761199451,-0.0014782830305561964,31.754211124239628,-0.0005404197310988165,0.00031098166230502744,-0.0008337552368483456,92836.91623165263,33.49863873667232,-99.33763550528225,731.3065105432646
2.5100000000000002,0.003557669049512283,0.0036311446514623157,31.08512296656194,-0.0011870175770331934,-0.00018077467585881756,-0.00019788743815076247,,,,
2.52,-0.0003791980907017691,-0.0011644147791031486,30.492201202427026,-0.0004478190611046149,-0.000317705854395819,0.0015263128908386003,92781.1668936378,,,
2.5300000000000002,0.0009627591484428193,0.001801086353490913,30.07698936653203,0.00032075192044613704,-0.000538467810771493,-0.0007447825596507801,,,,
2.54,0.0028671139155792185,0.004906497543435653,29.669418493875188,0.0013242111819405443,0.0016961483596074833,0.0004192827722442648,92723.7589069427,,,
2.5500000000000003,-0.0008325052656716015,0.0016117485612210153,29.264193053945053,0.0010957588170321525,-0.0010314349605520863,-0.00026516965520044825,,,,
2.56,-0.0012708206848281317,0.0008764780696602076,28.85937589585587,0.0007733504567555007,0.0020862587768011296,-0.0006885440098532423,92666.86977577968,,,
2.57,-0.005787451329416239,0.00011992068196924235,28.584340052367388,-0.0009364066480054521,-0.0008447346855675094,0.0005140389409521734,,,,
2.58,0.0044996297842236285,-0.005627064074569524,28.329693873436582,0.0005526294417870725,-0.0009170760059571337,0.0003792811509207801,92608.62275795365,,,
2.59,0.0036562504773824233,-0.00015034643349359154,27.96249019833031,-0.000561948526395276,-0.0014355710367077747,-9.369083371604656e-05,,,,
2.6,0.004962152930853825,0.003182285939033363,27.581669649306825,0.0004934769908865004,-0.0009961620225157441,0.002286763135481884,92551.50140142135,33.49862482900222,-99.33761773504173,760.260256701628
2.61,-0.0010680929920603582,0.0021688996787586597,27.170292001975703,0.0016073101210117367,0.00043846768810981755,-0.0010599411837366244,,,,
2.62,-0.004147434651991856,-0.004361812478258943,25.326972994858046,0.0019384271703422207,-0.0009664197756105729,-0.00014395798576610595,92493.64874543661,,,
2.63,-0.005146971651299451,0.00285289728577269,26.39002222706758,-5.8460732046688695e-05,0.0021600683514911728,-2.5995714917309893e-05,,,,
2.64,0.0025128530219138277,0.0030894141202960084,26.00510855748792,-0.0005756901333328267,2.7232151921649776e-05,0.0007634087001707989,92435.25242669831,,,
2.65,-0.001492336448761751,-0.001330463626275462,25.622597430915306,0.0015078422763347874,0.00039018832727582604,0.0006320051292212532,,,,
2.66,-0.0006379246968415734,-0.0028544793090641224,25.251489164060605,0.0021611082036634673,-0.0016877371271729474,-0.0016917588642352144,92377.94868036312,,,
2.67,-0.0035971611325663357,0.0040798823465419895,24.913677179605816,-0.0007052886754690819,-0.00163362131448294,0.0006084735624663962,,,,
2.68,-0.0013806120774652608,0.005902202822038856,24.593727155245784,0.00017831360986107295,-0.00014019618865699195,0.000943306220661185,92320.77951427664,,,
2.69,-0.0048501173954523975,0.006209175973718227,24.294603397769066,-0.0011383628021934924,-0.00012127999994516484,0.0005666110546233699,,,,
2.7,-0.001506956523008575,-0.0009702952877810437,23.999659266257332,0.00028884710289952577,0.0002621706632034459,-0.00044566273389382325,92260.19997801041,33.49858630965893,-99.33757892274681,788.0257016588847
2.71,0.0009426228821296445,-0.0048715015008815865,23.701983150511428,5.1143041087410893e-05,0.00041089711880654763,-0.0017258276002542526,,,,
2.72,0.0009534553462110353,0.0007137895711497808,23.418561573796943,-0.000856730416917611,-0.0008228321302005901,0.00024754167644365656,92202.36212039356,,,
2.73,-0.0034565350678167042,0.0010361766654461042,23.12060936267735,-0.0019454500206630711,0.0005570291476135653,0.0008719435247842055,,,,
2.74,-0.0015245671050755582,-0.0029775055668949694,22.821424355357774,-0.0001425142422476861,-0.0001543306096592898,-9.97548892094835e-07,92143.74680668782,,,
2.75,0.0016109621518607521,-0.0001686402933885326,22.53251786045051,-0.00089324522560594,0.00022785055131318893,0.0004358190739044103,,,,
2.7600000000000002,-0.0013404746133925116,0.002262761593305078,22.24409963680551,-0.0006683113535583022,0.00041659724289898114,-0.0009692151724158563,92083.8209465175,,,
2.77,-0.0021228742505536432,0.0013457356979184583,21.962180080441787,0.0003660388713089484,-8.051308897037356e-05,0.00042899662275368473,,,,
2.7800000000000002,0.0033356647781891727,0.003168578121651535,21.67261344923624,-0.00010750295608735272,-0.001384610016859057,-0.0005061090413689645,92025.54236517286,,,
2.79,0.002898590907767312,-0.0010884594206999997,21.41402610762753,0.0001156987562257028,0.0015242219042235958,0.0018681130924201217,,,,
2.8000000000000003,-0.0008188631850402186,0.0014061578292648093,21.153617310012834,-0.00029755812479140845,-0.0003350315767522344,0.00031081465604930713,91967.66535661186,33.49866542687324,-99.33766920653963,810.1695479489451
2.81,0.0022782089800306438,0.002026724733440725,20.915575295994195,2.7769011352148945e-05,-0.0005443860783562384,0.00028704879758304484,,,,
2.82,-0.000500636679425107,0.0022150077404303483,20.673919180552748,-0.0006149338272128784,0.0012077587956171249,0.0010520786437353408,91908.54807091235,,,
2.83,-0.0017844582525120872,-0.002368221572875323,20.441452261495066,-0.0003638889547278676,0.00020169007726720224,0.0004166192578787743,,,,
2.84,0.0010605108375960905,-0.0026827767174779638,20.199043823177313,0.0008497431711218407,0.0004760384004394286,-0.0007939020165826151,91849.01261642032,,,
2.85,-0.0013313119301041592,0.000640452063548682,19.99587963453374,-0.0010946327635058288,-0.001729727548080238,0.00039882845167238336,,,,
2.86,-0.0007809459640469087,-0.0013784696440043095,19.795716037875412,6.84644266599622e-07,0.0010150113569021267,-0.000346276710633747,91789.65640716268,,,
2.87,0.005536106908559479,0.0001231728291692902,19.576577965399657,0.0015745767668257204,0.0011533937063797877,0.0015186220358034944,,,,
2.88,0.000553788215869831,0.004567064582755333,19.366244420641994,0.0007864012936889774,0.0011051434848820619,0.000537453384753896,91731.42553017588,,,
2.89,0.003758386875408699,-0.005934706117609113,19.105594124946027,-5.378219771502086e-05,-0.0007480900616837506,-0.00012129888215310081,,,,
2.9,0.004179563264246919,-0.003353798931029544,18.846845863353433,0.0007544594385303759,-0.0003535452962356076,-0.00039675841716091154,91671.11491772471,33.49860691683106,-99.33763977365454,838.5126633558331
2.91,-0.005180519176711413,0.0012138850570109657,18.582640862967292,-0.0007880659903286618,-0.0004404940428125484,-0.00020583815190846892,,,,
2.92,-0.004572021298746953,-0.002174933082783264,18.31601207716654,0.000811789210654814,0.000502071078195827,-0.0010489886603149146,91612.0449747364,,,
2.93,0.0007226242941068368,-0.002885303903085045,18.032482258221364,0.002035674512313801,-0.0006681256637377639,-0.000259495736191872,,,,
2.94,0.0025127594760068236,-0.005227877628598649,17.73796153424791,-0.0010253030334242152,0.0007817539483619182,0.00027456832721433683,91552.79140169702,,,
2.95,-0.001012213267239941,0.0009771374753549068,17.42459295425584,0.0011450895576840406,-5.414690674636033e-05,-0.0019108960216147465,,,,
2.96,-0.0015607465308301051,-0.0085988548578313,17.106749522659157,0.0005938634560592255,-9.301495834580423e-06,0.0005921014229508902,91493.98519790513,,,
2.97,-0.001165890225244062,-0.0016911562475762502,16.79019462310555,0.0026568499414472216,-0.001124039562616585,-0.000896793812397513,,,,
2.98,0.003951432799467338,-0.0013427306908594897,16.465820210190284,-0.0008094936218104815,0.0006342904610379462,0.0013058258467276557,91433.09314713241,,,
2.99,0.0004758896454051598,0.0021674724927275802,16.137894352384322,-0.0013755861119507705,-0.002028419270452097,0.0005712411718490278,,,,
3.0,-0.0033316737736069774,-0.0001059063188519672,15.801316622955827,-0.0001322285585902384,-0.0006544231287213738,-0.00014889102714977218,91373.1882220315,33.49862937864104,-99.33760985247379,860.390733952872
3.0100000000000002,-0.0003612303116483145,0.0033183573881409327,15.469975198150049,-0.0013412762709031302,0.0012307277464504284,0.00014545764075321607,,,,
3.02,0.006332029992740247,-0.0033702393615441047,15.137496601089868,0.00047953428998993863,0.0012117655745263146,5.9251482690452284e-05,91314.37475479851,,,
3.0300000000000002,-0.0014077041964189747,0.0004357533216075311,14.814790951735835,-0.0002789847244257809,0.0001465425229545957,-0.0008403032177691765,,,,
3.04,-0.0025570113763727716,-0.003691110846733583,14.498425419079341,-0.0007964880335165074,0.0013850646081265668,0.0015425223316542988,91252.95003094095,,,
3.0500000000000003,0.0016488259567224062,0.0015566304424776477,14.197437466364736,-0.0015789486565628847,-0.0003213579934112374,-0.0008233458140354734,,,,
3.06,0.003702150888963787,0.0017484439431670763,13.896702662402888,0.0010735819840721793,0.0011459210286075174,0.0005987361975698708,91193.32180943833,,,
3.0700000000000003,0.002870082573060846,-0.0010942140168022738,13.599760936059504,-0.0011120002963436806,0.0008958931601627749,-0.0002154982873059435,,,,
3.08,0.0031348742869373534,0.0011596351180756667,13.30488933452899,-0.0007234271879096639,-9.113886590507982e-05,0.0005346310043354838,91133.0962310907,,,
3.09,-0.0010795431403441249,-0.00026539515524894654,13.003965740897598,-0.0012334004153815663,-0.0007181250356262321,0.00010348412209623982,,,,
3.1,-0.0023992244473868226,0.004763856349624128,12.716436097825891,0.0007145269406483876,-0.0002070754149378109,0.0007613339351542224,91075.25960004557,33.498641207668435,-99.33758907319192,886.3323746341504
3.11,-0.007001344427590879,-0.0003394027413332426,12.465221806745324,0.0006247770429754192,0.0006195415615006923,-4.046312120515903e-05,,,,
3.12,-0.0004964376909055325,0.000329944549812681,12.216380259829599,-0.00042242132838623945,0.00047340335268685293,-0.0012543809313237194,91014.04049047049,,,
3.13,-0.006627441803558951,0.0016597979301709528,12.010206507088018,0.0006329345162969605,0.0007262663631294018,-0.0006289490083673838,,,,
3.14,-0.00046630965982296464,0.0029511445312189566,11.805620354721086,-0.00010602131832280733,0.0009135071746823034,-0.00044788017465427114,90952.07582097102,,,
3.15,0.004984966549958757,2.532113630994921e-05,11.620397204941476,0.0008277703216671289,-0.0014900945354177862,0.00024512558964077366,,,,
3.16,-0.0018168482618469866,-0.00028145278725268173,11.434149523739165,0.00047535982108975306,0.0011235164835115352,0.001274119335452147,90892.12475132835,,,
3.17,-0.0011038306738147456,0.00010488913935232446,11.24366633278399,0.0005082545694265046,-0.0021075555709013706,0.001284525407858459,,,,
3.18,-0.002939165557395557,0.0007712861871318908,11.05214918076567,-0.00027585233247532336,-0.0010434908435769483,0.00018097619362931572,90832.47200880207,,,
3.19,0.004014173586367593,0.003665702090011635,10.83066824284086,6.13426659903729e-05,-0.0006170064332944292,-0.0002764078439061896,,,,
3.2,-0.002284179136609086,0.00031404951339181593,10.614628346842064,0.0004091753134403438,-0.0014907819758511692,0.000913740482785586,90772.03396261594,33.498620426706296,-99.33761586641255,918.9568177821463
3.21,-0.005588641944034613,0.0026510799098655984,10.335202388303873,-0.0004561048971131456,-0.00027238942833880523,-0.000857392453518168,,,,
3.22,-0.005566441966074007,-0.0005329745904654251,10.060985679947992,-0.0009468033729733484,-0.0006374390849908673,-0.0005630748864457075,90713.05584217192,,,
3.23,0.0014243561154610803,-0.0018569893605241555,9.681506584824165,-0.0013160318308189029,-0.0006521091419172243,0.0014554848091787264,,,,
3.24,0.001097196936554821,-0.0005174559094369497,9.296445546404568,0.0007192764208076355,-0.0016536734629313322,-0.0014356776633269541,90652.83283989411,,,
3.25,0.0005311284890261596,0.0007865403512012907,8.796276829564674,0.000598147181810958,0.0005574717137098083,0.0007970442109557907,,,,
3.2600000000000002,-0.002824282975088961,-0.0009793568891634605,8.287895777077031,-0.0023054402919874825,1.2051440659652358e-05,-0.0018673524744215588,90590.61308592037,,,
3.27,-0.0031332333796358558,0.0012210994237019449,7.73555608319141,-0.001316854226832854,-0.0007278607841800085,-0.00048647826425109853,,,,
3.2800000000000002,0.0023500903189252135,-0.002930787509783063,7.193657902730656,0.0015774803708080818,0.0007947563720567049,-0.0018372025374424545,90529.80384651855,,,
3.29,0.0008790843951099141,0.000859926572187973,6.605221922624149,0.0004286979191565071,-0.0019508878202960098,-0.0014721935178947198,,,,
3.3000000000000003,-0.00038567544060462856,-0.007786790562422817,6.007069493895181,0.00024280911934312615,-0.0012839725105835453,-2.6488185441516693e-05,90469.61245254995,33.49861266819717,-99.33760458411649,943.857866058195
3.31,-0.0027168310722505604,0.006249956128202008,5.389856057327264,0.0010885628027179199,0.0011551395497621264,0.0005695766966783934,,,,
3.3200000000000003,0.005129543952951726,0.007312922468086697,4.771982480653475,0.00012914226049056212,4.507502745639081e-05,-0.0010264308807852003,90409.69405686838,,,
3.33,0.0008453567660602084,-0.001140044310329143,4.09545936983356,-0.001275831278521402,-0.0007683717802489574,0.0022076853581518966,,,,
3.34,0.0022706464169382863,-0.0028113744500816757,3.4058926565330654,0.0006642198580915828,-0.0011101705732244993,0.0014112924344475662,90348.83540677684,,,
3.35,-0.004491619606672192,0.0010645337806004984,2.508477547725663,0.0004380502690426746,-0.0016764283067299017,-0.0008612594489665865,,,,
3.36,-0.0008791646320688378,0.002372895133122438,1.5934708081979738,0.0012810545165204317,-0.00010596187159553598,-0.0009019694791274051,90288.09149572074,,,
3.37,0.0005949442860118598,0.0030081560770297442,0.44950367344578374,0.00013381024875753185,0.00040119842988813753,-0.0013725553352447173,,,,
3.38,-0.002730828420357196,-0.001652436980030208,-0.7163475259501059,0.00219394879212163,-0.0013211134072233653,0.00016754856763391516,90227.65814090037,,,
3.39,-0.00667496158866293,0.0010668878671206163,-2.119223674308967,0.00015162078236223813,-0.0006414407366525272,0.00021443240204467243,,,,
3.4,-0.0006528020693119286,0.001863315833865043,-3.53484975790596,0.0014855784329119903,0.0017404843192751654,-0.0011534324909405439,90166.22806855138,33.49861484211346,-99.33762064494718,973.9864717763172
3.41,-0.000529594758162603,0.00275087604400271,-5.0465227429660375,-0.0018349158627397368,0.0005747477003647267,8.754457976178452e-05,,,,
3.42,0.0029353092183504953,0.0010371807645420058,-6.565755725569737,0.0013487528585047553,0.0003346845548815302,-0.00047093982332645744,90104.01294273282,,,
3.43,0.0010669805452107333,0.000711375980390471,-8.018863770556306,5.900690682215279e-05,-7.25555758689194e-05,0.00023883686452520666,,,,
3.44,-0.0024382023645592265,0.008305196426393411,-9.466665304455663,-0.0009188373704854268,0.0007670183062780853,0.0002658440675412661,90044.71019208946,,,
3.45,0.00041926914223850374,-0.006997869525615623,-10.761686976930234,0.0001384484615373152,0.0005069556098089375,-0.0006366299492552107,,,,
3.46,-0.0006183750147873035,-0.001852292923739182,-12.046680861893273,-0.0005169875334863389,-0.00015648810637211225,0.0025779643383677434,89983.75222599482,,,
3.47,-0.0033047673185330763,0.0009522845309307193,-13.163805099898076,0.00018267151459709118,0.0005481517557249555,0.00039735720954995186,,,,
3.48,0.008030184530098272,-0.0006672142989523186,-14.271155657559715,-1.8710862230261312e-07,0.0004348091931779313,0.00034892776108735044,89922.72751343186,,,
3.49,-0.003613407649415763,0.0009548626035962571,-15.227473992635437,0.0008910385102626445,-0.00012700481522077864,0.0015821499284195267,,,,
3.5,0.0010806188945395887,-0.0029784536641247555,-16.167471346455255,-0.00025433282799999736,0.0008369700351190875,0.0005479075345590858,89863.29772602204,33.49865230803254,-99.33758900090045,999.0322842654375
3.5100000000000002,-0.0017799894972793141,-0.0018578222461224606,-17.039309050923777,2.8258225138004047e-05,-5.812801802334019e-05,-0.0009275759073922995,,,,
3.52,0.0008431006914475818,-0.0020614255469084187,-17.913720509233336,-0.0007472728920556134,8.164506782510008e-05,-0.0005051642757107704,89803.73892627543,,,
3.5300000000000002,-0.005012596851660651,0.0025554630246615354,-18.757825285014505,0.00034744703706193547,-0.001748432027707412,0.0010496881095848458,,,,
3.54,-0.008935775605765585,-0.006313829586262979,-19.60440824168983,4.373103346733628e-05,-1.711004535776533e-05,0.0011043908104419406,89743.62695756539,,,
3.5500000000000003,0.003181669023565741,-0.002147966804922662,-20.37287114722196,-0.0013492913976360708,-0.0008854591401558639,-0.0006475267011598747,,,,
3.56,-0.0017781285907935735,0.003903424405771341,-21.136809416104832,-0.0005049322803453582,0.0016225490537282814,0.001222019609946016,89681.68873720252,,,
3.5700000000000003,0.00029851449895853773,-0.002964080952737504,-21.904057597502074,0.0011035300992192627,5.2902229104099633e-05,0.00028115996225231934,,,,
3.58,-0.0038839228235246588,-0.004117547601866737,-22.674553651887532,-0.0003729344426289507,-0.0009707177667750665,-0.0025073258022341592,89621.76555006312,,,
3.59,-0.006234463277390401,0.0028525350222007684,-23.15842299836332,-0.001050369704650597,0.0011327475577569811,0.0009574235350890667,,,,
3.6,0.00040170093915428104,-0.0029956027186203095,-23.62128781467739,0.0005955274213504299,-1.1253356710657767e-06,0.000572624354336459,89562.6668639598,33.49862712898084,-99.33761690521666,1019.0143021963422
3.61,-0.0034687134939722663,0.0032896881165569514,-24.089516581978238,0.0006331588048496773,-6.628827215998154e-05,0.00043510316780689,,,,
3.62,0.0032929707629387977,0.00070439196993222,-24.549011283789078,3.809281146487648e-05,0.0007786159948648478,0.00020165104640884832,89500.71787460284,,,
3.63,-0.0014076907069257604,-0.001713393266676053,-25.193067022648695,-0.0010472780973854539,-0.001028615793935019,0.0002765058444335707,,,,
3.64,0.0028440237535447537,0.0007419642961546711,-25.859000022148557,-0.001049975889316757,7.511399815756127e-05,0.001161909394380122,89442.06349808288,,,
3.65,-0.0004462690994479809,-0.004081979233721282,-26.48996188114264,-0.0003216539696161006,-0.0007934617630203157,-0.0008775655968581979,,,,
3.66,-0.0012268056755331562,-0.0022982833828042613,-27.114026794470245,-0.0022567279547723706,-0.0017910908883890327,-0.0006748224705854829,89382.13894296448,,,
3.67,-0.0019448056794642706,0.0004590124971782157,-27.96767137446879,-0.00032059399908705,-0.0021298251141135603,0.00036180625394674286,,,,
3.68,-0.0019269753677068954,0.0009733513290242882,-28.8469779583529,0.0014996846253413857,-0.0010742573286253014,-0.00023128762111625172,89322.82281707763,,,
3.69,-0.002316747705773749,-0.0027673416843793236,-29.626741541103176,-0.0018124462305190473,0.0017473184172022169,0.0001437025719320965,,,,
3.7,-0.00785247436763579,0.0017255922498349292,-30.405025760344895,-0.003592077744809359,-0.0003856305010795368,-0.000471593174050706,89263.19833782001,33.49861549227368,-99.3376502850324,1055.915073599994
3.71,0.002545084911135197,-0.0025984257551211953,-30.902421881098114,-0.0010189835350026546,0.0008401148873769697,0.0001935066780320272,,,,
3.72,-0.00300086163405359,0.003345746677813626,-31.376475168022417,-0.0005897631635060289,0.00170654055476045,9.472789817271074e-05,89203.67430090685,,,
3.73,0.0007099336766646483,-0.001967558772568051,-31.78192703110309,0.0009237598748413787,7.955535092192408e-05,0.00015690750709509077,,,,
3.74,-0.0024273007489909047,0.0015160519293804778,-32.17420066860314,-0.0011580451146292728,0.0005436127520962994,0.00018825840464948212,89145.40453468554,,,
3.75,-0.0015033104058519544,-0.009591262134656046,-32.495683794748,0.0011283075067803168,0.0009700099840745073,2.5251346463956248e-05,,,,
3.7600000000000002,0.002076092084800587,0.000715399395877858,-32.81469803639336,0.0005481193593084267,-0.0008026406196129051,-0.00015600802626485012,89085.58499194957,,,
3.77,-0.0025324675303621644,0.00029192592047207997,-33.067932940036115,-0.0001357339938049314,0.0009355694899828331,0.001012393563378193,,,,
3.7800000000000002,-0.005517185296681503,0.002492203998311649,-33.305654045711435,-0.0009000725420113027,0.0006931476517226489,-0.0009270340801155047,89024.64075930754,,,
3.79,0.0029322496120484445,0.00097072673980834,-33.50288355924188,0.00028971496198852334,-0.0012888248307289373,0.0015326939246030917,,,,
3.8000000000000003,-0.0006797651166336854,-0.002740130711253796,-33.69612760242388,-0.0009814630406474157,-0.00015178096120072545,0.001971559019604982,88966.64546102307,33.49858705053425,-99.33763289799504,1086.1876723463747
3.81,-0.0015334731002310227,-0.0003586070001293825,-33.818724791890574,0.0005441663483753617,4.370779164563956e-05,9.986941921213254e-05,,,,
3.8200000000000003,-0.004002004166758194,0.001148151812217755,-33.93215494905844,0.0007987422338856281,0.0008969305292514425,-0.0002601146332949431,88907.73306797114,,,
3.83,8.702468119982714e-05,-0.002957184190810796,-34.00147730998047,0.0013289026100047404,-0.00040811485046634156,0.00014075592708721142,,,,
3.84,0.002920715064147475,0.00303152628007819,-34.065408185260566,2.5768197515361047e-06,0.0007591275859088499,-0.002409482493476488,88850.06659504455,,,
3.85,0.002929406518307753,-0.0020194998905171966,-34.100601066219305,0.000290859769781833,0.0005193869026246323,-0.0002703506497505462,,,,
3.86,0.0005033049817995132,-0.0015687645741340925,-34.14098329792004,0.0008449801993257848,-0.0004457374837314211,-0.0012588955373245903,88790.69114628334,,,
3.87,0.0011623914965305465,0.0019276987009575809,-34.182033046245785,0.00014479330453487214,-0.0003517840383510205,0.00010155722194537125,,,,
3.88,0.001577908786253576,-0.0011820164414322123,-34.22378950699175,0.00022935985420933868,-0.0005717849209946358,-0.00015872534791008943,88732.99521577838,,,
3.89,-0.0017095571711203312,-0.006079063882555547,-34.2770935553962,0.0021792775829623076,-0.0012563283510960536,0.001650761853567023,,,,
3.9,-0.002302531809307194,0.0034323848789816758,-34.33441021880269,-0.0008040528844676829,-0.001993831038694293,-0.0002201725069164444,88674.84895885154,33.498662455229514,-99.33756981112246,1111.698842513689
3.91,0.0036907071271195797,0.00754078761605678,-34.663714256332526,-0.0011896265713967646,-0.0017934319228788916,0.0013887167424740626,,,,
3.92,-0.003377891620417324,-0.0012891956897248752,-34.63085895494403,8.4122221788236e-05,0.0005713332879293883,-0.000645274417825785,88617.92005153745,,,
3.93,-0.0022635756332375556,-0.005886080567070885,-34.59336731348376,-0.00047573421681323784,-7.32506239277495e-05,-0.002622535566887447,,,,
3.94,0.0005694181679873038,-0.0013822812335643224,-34.5511223029527,0.0011476751151864172,-0.0008479056551301282,0.0006373173364221361,88558.74348136412,,,
3.95,-0.00017098570303857358,-0.0011634459925524104,-34.51922688967443,-8.135051675285028e-05,-0.0006080931328767055,-0.001041624942797272,,,,
3.96,0.0029463318907820453,-0.0001580088777650647,-34.485749329690705,-0.00042145061237390866,0.0021039836418063223,0.0005816551839506282,88501.24598512906,,,
3.97,0.0004394730241607746,-0.0004979343734602741,-34.44100880232783,-0.0005420062230899353,-0.0012265087558485318,-7.460936859276684e-05,,,,
3.98,-0.002981732691041176,0.0020103576103660584,-34.40765455661461,3.559377809311489e-05,-0.002354075451691388,-0.00025588811224512223,88443.72261714489,,,
3.99,0.005796707917998378,-0.00034974416905980444,-34.36728308204547,-0.00038093740014848973,-0.000772735552000518,-4.131094817930139e-05,,,,
4.0,-2.4955261937684607e-05,0.0011580070128533503,-34.33471149751748,-0.00027039963749419117,-0.0006804624596074172,2.110518958747638e-05,88385.81099232007,33.4986492837881,-99.33767012077736,1129.0012753092974
4.01,0.0011720054652758,2.9088781960508548e-05,-34.29295580534396,0.0011928070634599308,0.0009424442166884241,0.0004893177403948561,,,,
4.0200000000000005,-0.0036831353357468714,0.0018219890042184387,-34.25754923811895,5.081103915853711e-06,0.0006570603728534061,0.0003535911620907765,88328.54476722122,,,
4.03,0.0005144542311714495,-0.001877704573572519,-34.22354445771003,-0.0003362364683192721,0.00019601843643561546,0.00064942731182704,,,,
4.04,0.0011233185652028234,-0.007147604673946315,-34.1802355655243,-0.001086385932202093,-1.584054254481346e-05,0.001617425115762778,88272.49639950087,,,
4.05,-0.00023294680069746494,-0.0012154808269049429,-34.15173763146841,0.0017366782638309692,0.0006270965629588674,0.0005833821571094073,,,,
4.0600000000000005,0.0004933686368099442,0.0022022625571496463,-34.112094097203595,-0.00023930934372712033,0.00030290502340725103,-3.991709906594359e-05,88214.90842935251,,,
4.07,-0.0014492560001885776,0.0014662756256212833,-34.07192122011977,-0.0005859492924857828,-0.00010738027513679175,-0.0008681272603657641,,,,
4.08,0.004002750187128608,0.0025398759398315637,-34.040925609218455,0.0004955744261223851,0.002538721445040738,1.917321166395089e-05,88157.38081974867,,,
4.09,0.004296416624871228,0.0034600445212200183,-34.00157554026216,0.0009453027293843607,0.0016458290064573719,0.001314172787646214,,,,
4.1,-0.001543543108986461,0.00129046383665981,-33.96667722597955,-0.00018822928077909782,0.0011847436510028636,-0.0005558477462258562,88102.19117061037,33.49859080303547,-99.33761339751655,1163.5090493570717
4.11,-0.0015908745004776148,-0.002433524800282135,-33.93436314507251,0.0022267590816513146,-0.002025228370663617,0.000743650989573826,,,,
4.12,0.007837507198969263,-0.0004829404062733696,-33.897617631392016,-0.0014321588124725012,-0.0001316500735535651,0.001328330480346975,88044.78693261891,,,
4.13,-0.002872025585475274,0.004072520944947981,-33.8607190974891,-0.0022609479155757534,-0.0003421410936849219,0.00011380551380882712,,,,
4.14,0.0032975301815908243,0.0005415098490465264,-33.82450660681952,9.209752493253802e-06,0.0006895488703019258,-0.001544552337536424,87989.0969856647,,,
4.15,0.004569500731901509,-0.004277565022985827,-33.786567552332464,0.000580312114062447,2.814529216430076e-05,-0.001341789474577041,,,,
4.16,-0.004716731185746625,-0.0020090903154939715,-33.75463177038709,0.0011897434023583568,0.0013944886684111324,5.707290732216123e-05,87931.16218472252,,,
4.17,0.0022564052034345617,-0.0002594857642054898,-33.71533758530587,0.0015556351918463618,-0.0023427987865934316,0.00014371391150214523,,,,
4.18,0.001849699579411743,-0.0014040765373534306,-33.68242643244648,-0.00029249046871441755,-0.0006606896784484713,-0.0008583253609652481,87874.98648511058,,,
4.19,0.000805272403259655,0.0011875492480819874,-33.64553224722547,-0.001338137975892185,0.00011747601496997536,0.0009871117111063083,,,,
4.2,0.000539794774398283,0.0020680509067872895,-33.61095275709633,-7.549716436259738e-05,-0.00046805642017977656,-0.00024924917166017435,87819.86007361732,33.49863590556848,-99.33757334479334,1195.7784266817796
4.21,0.002943576968624395,0.0024977870662384757,-33.5780174727842,-0.0013234645823181064,0.001778625165152598,-0.0010710102211910816,,,,
4.22,0.005029058233895368,0.002477602783263902,-33.54065677304106,-0.00028093988916234576,0.0011780261754391903,-0.0009929751337418463,87763.49164359782,,,
4.23,-0.0008272814192802431,0.0028690919910597584,-33.512066651870306,0.0005438126952174885,0.0013681238853442532,0.000978789896322345,,,,
4.24,0.0075832233227631565,-0.0012204746581415753,-33.476371057022554,-0.0005555810567499204,-0.0002486104452279016,0.002199220380038944,87707.14733685064,,,
4.25,-0.0010445268730362195,0.0016049431977942007,-33.43390684839495,0.00021241232810427494,-0.001569837755488888,0.001459877098924716,,,,
4.26,-0.0033758573295759402,-0.0021913735998005013,-33.39938495902586,-0.00029298498893708846,0.0023951684514797915,-0.002630539458796292,87652.20146536054,,,
4.2700000000000005,0.0058659090291528675,-0.00474005412015791,-33.36665217032712,0.0006675411211176543,-0.00042168144750489455,-0.0014294795187700323,,,,
4.28,-0.005920915223972282,0.0008749775319749706,-33.335225607213815,-0.001596394524743997,-0.0014718977148594806,-0.00031140821613482656,87595.13868811833,,,
4.29,-0.0020120930986516077,5.998313202459101e-05,-33.29918854245803,9.541408268766277e-05,-0.0011401331800233844,-0.0017974985618418992,,,,
4.3,-0.0024869990243170654,0.006731060030783754,-33.26808632621383,-0.00023368287865877752,-0.00017581364496280322,3.2565846632289975e-05,87541.72475222257,33.49864457317079,-99.33760908642739,1220.0958679010478
4.3100000000000005,0.0029247627832289366,-0.0026065739582227473,-33.23275799438379,-0.0014148884323070927,-9.406957516468488e-05,0.0017194236521077117,,,,
4.32,0.00655811901628018,0.0033771805184212565,-33.19992111366569,-0.001346396851071833,0.0013162989677663153,0.0016930644115113627,87485.57237119354,,,
4.33,0.0030241182525461998,-0.003167360634174894,-33.16551723228551,-8.893235047008411e-05,-0.0004361482672433254,0.00022496482233610554,,,,
4.34,0.005678902526808379,0.00023889747141906545,-33.134684150401114,-0.00020694022521667733,-0.00039317299384800396,-0.0013165262098426174,87430.7147844285,,,
4.3500000000000005,0.0037768030170449865,0.00022655689306286394,-33.10403343946591,-0.00032280692303716696,-3.1299345673760205e-05,5.6537007574861315e-05,,,,
4.36,0.0006559706760024767,-0.0016929825795307795,-33.06312152384711,-7.257401813447274e-05,-0.0014178990663416648,-0.00014098115983544217,87376.09785273703,,,
4.37,-0.005214240842457608,0.0013941737172050806,-33.029623329055916,0.0010734065699526851,-0.0001306155474968683,0.0006883454657515169,,,,
4.38,-0.0028341304613496644,-0.0022802123247681705,-32.99513505988174,-0.0007175967977957319,0.00011134728819318487,0.0005751058313706162,87320.87217862914,,,
4.39,-0.00048422074500048144,0.0013971540029103192,-32.956028328741276,-0.00013305867981935305,-0.0022738159153971914,-0.0011257718412301676,,,,
4.4,0.00333016100931135,-0.002424417517044349,-32.929840620367735,0.0004991017256205504,-0.0009534466930186036,-0.00042717067925505644,87265.36453244611,33.498623493696535,-99.33754600714668,1232.6392645909505
4.41,-0.001376632935133918,0.0023021643104238327,-32.895769322606284,-7.460953728121918e-05,-0.001097223206685746,-0.0018713175885459702,,,,
4.42,-0.0012332738974627662,0.0016772761524945245,-32.864105721684226,0.0011615194089709497,-0.0021422661566171904,-2.7440257093327687e-05,87211.17280882786,,,
4.43,0.003328795745152673,-0.0012303463874981926,-32.82867566294849,-0.0009688911395648362,-0.0016597273153436784,-0.0010732683527851106,,,,
4.44,0.000593080168279665,-0.0014965407055096615,-32.80176930105224,6.104600644116262e-05,0.0015069102173085845,0.0004315183165767319,87156.86981196284,,,
4.45,0.005871075771371428,0.0004714200747584025,-32.76843564984699,0.001872725787122327,-0.000340987162974831,0.00046684433966064646,,,,
4.46,-0.0038048789819110167,-0.0009703685660118991,-32.7349137737755,-0.0013729750531687097,-0.0003247970808892119,0.00015769915150596359,87101.97104998078,,,
4.47,0.001788946093302246,-0.002942823144247723,-32.70851178572357,-0.00010138898572038605,0.0003504368262504045,-7.205773579632589e-05,,,,
4.48,-0.0009088589970471467,0.0012546514867629213,-32.673191821690445,0.00032585574568305177,-0.0008649501674482073,0.00019276603557260425,87049.13875355438,,,
4.49,0.0009387337780668556,-0.0014657446551564772,-32.6488546705815,-0.0007552291362437423,0.00029801705100453445,3.2002495955685845e-05,,,,
4.5,0.002385626687515864,0.00019274521133392115,-32.62089234637663,0.0004639120244150002,6.681270381382529e-05,-0.0005492134961840777,86993.56309613842,33.498636424842225,-99.33761623081877,1271.3369383124573
4.51,0.005524858176712734,-0.0008678173529031131,-32.59031785612536,0.0009086239503841477,-0.0007158837380924781,-0.0017161553152378092,,,,
4.5200000000000005,-0.002561939015414403,-0.0020526547519580792,-32.57006458410444,-0.0006683495817231504,-3.16734576764993e-05,0.0005458813756942123,86939.88225984562,,,
4.53,0.0003211448321925771,0.0016423625598510699,-32.540116577090956,-0.0015243443001558496,-1.3413643827556816e-05,0.0008364914778278423,,,,
4.54,0.003474852349450293,0.0043449999281525925,-32.50255348578073,0.0007990277324312776,-0.00014788927639228003,-0.00028223776704218515,86885.81457281025,,,
4.55,0.007547896216309924,0.004578633916206383,-32.472283428434466,-0.00029982828488962337,-0.00143619408810544,0.0003768786830911692,,,,
4.5600000000000005,-0.001862678953758378,0.005140164188885628,-32.4401246857612,0.00048615131922803077,0.0001032689821368008,-0.00022985138579210566,86831.12804398462,,,
4.57,-0.00803944141943723,-0.005219085849399736,-32.40501024601249,-0.00024841304036005775,-0.0005807350611244296,-0.0009705690773004534,,,,
4.58,0.002002462321999259,0.006509361862225812,-32.378373540774874,0.0006331617980655088,-0.0007753062538593287,0.0011479315374319538,86779.76613874809,,,
4.59,0.007947284137966977,-0.0004849751532800478,-32.350647222094175,0.0017295882942920137,-0.0005397479516523006,-0.0010620317476427504,,,,
4.6000000000000005,0.0006651059629683073,0.003271804560092321,-32.31868108895345,-8.51974721085255e-06,0.0012175344156744857,-2.55131298130244e-05,86725.64955025094,33.49867957998751,-99.33760598254851,1298.3425720497755
4.61,-0.0015108987205082805,0.00272275782542248,-32.285186409388,-0.00010158355351547156,0.002140795316228074,0.00020574312057249728,,,,
4.62,0.0007185542720047106,-0.001976578243628987,-32.2538155357084,-0.0017579641946191924,0.0006955948338562942,0.0006332216622136089,86670.65669828292,,,
4.63,-0.001087581954104916,-0.00039368929874148594,-32.22232357421461,-0.0009889970810674884,-0.0008735259690795985,0.00091162270178267,,,,
4.64,-0.0007249972831128429,0.003512629185679691,-32.191169192719,-0.000792032007774775,0.00013966643589905154,-0.0012238280785433525,86618.84792276072,,,
4.65,0.0017374915764061956,-0.005549382845046425,-32.1568697251926,-7.99312001838415e-05,-0.00024941459064507885,0.0021545410973434808,,,,
4.66,-0.001064281918273002,0.0021914289108563253,-32.133593186666296,-0.0014418436288405544,0.0007547228308791616,0.0021259211511158948,86564.36234083689,,,
4.67,-0.0020006409526424464,-0.0031606485444716586,-32.10055260089801,0.0003530846688125828,0.00025590459323685596,-0.0005917333039664261,,,,
4.68,-0.0065963821312999705,-0.002592144779699246,-32.069264797120795,-0.0013920255167129286,-0.002494520713331538,-0.000573709026960784,86512.2761472798,,,
4.69,0.001954002833470198,-0.0037879311272942706,-32.04076206441032,-0.0006405867288699694,0.00031518660626580553,0.0005188445804872408,,,,
4.7,0.003431693709712222,-0.002452061561112324,-32.01916816272429,-0.0010447112536791114,-0.0019372780504398352,-0.0001223189059629834,86458.09486218335,33.49864447613001,-99.33763166526009,1318.7580518031423
4.71,0.0003231528369811417,-0.0032426546209452733,-31.994792781739974,-0.00022231570559100566,0.000453646688596559,-0.00034662496551253225,,,,
4.72,0.0009525113967256408,-0.0015410104074420423,-31.971152914125355,0.00045146866072860346,6.351074405161006e-05,-0.00030069220855779183,86407.32417443281,,,
4.73,0.00020830459452205648,0.0004651653550143503,-31.93946930446596,-0.002105551012699795,-0.0002408613850486714,0.00038097472430908777,,,,
4.74,0.0013599403508880222,0.0029930641457911037,-31.914560272888163,0.0003746519310390804,7.26771305687605e-06,-0.000425110770956374,86354.06574425114,,,
4.75,-0.0028294590342176585,-0.0005093282467729116,-31.88369057954916,-0.001589212029200432,0.00029842141370245873,0.0004633835862627265,,,,
4.76,-0.003331865776712045,0.0004442118181285937,-31.84838064489966,0.00090989166274866,-4.376061702562408e-05,0.00042715898134250896,86301.9970283597,,,
4.7700000000000005,-0.0009957692000049673,-0.0034186652051070485,-31.823354629416013,0.00019718631037835688,-0.0010689521068483914,0.00047302832908444726,,,,
4.78,-0.001829100338123388,-0.003104765847423676,-31.7890396535439,-0.0001767577488895745,0.00034629671643697567,0.0005832160228030784,86248.58971089587,,,
4.79,0.003029510805352086,-0.0021413780263347284,-31.762917387736938,-0.0011209153977533414,-0.0003188864799555765,-0.0004298017453177545,,,,
4.8,0.0013219351586636285,-1.2699856056672865e-05,-31.731988631575657,0.00012958044451864305,0.00029538847273897524,0.0004719735030585377,86196.72778869583,33.4986614260277,-99.33760615974523,1340.9284887240492
4.8100000000000005,-0.0017080397882326425,-0.0005978775930382221,-31.706656973486478,0.0003536800926530187,0.0023575022361120115,-0.0006748314035229967,,,,
4.82,-0.001725376551870928,-0.0023012430251973365,-31.673723447158576,0.0003631501694076756,-0.0002162858345158156,0.0012426433831075675,86143.59746696906,,,
4.83,-0.003075713134766747,-0.0006651164265649235,-31.647285989703754,-0.0003385930343766617,-0.0016474016341389112,-0.001993148591923192,,,,
4.84,-0.000336471740777402,-0.00024828591621708256,-31.62174374846495,0.0007757908434676673,0.0015809316253270341,0.0005892651349762667,86092.37573547634,,,
4.8500000000000005,-0.002976615986046096,-0.0013359902348996405,-31.58859052642652,-0.0003689231281700767,2.8785351337417174e-05,0.0005359102810697938,,,,
4.86,-0.0011491108771265778,-0.0011388279725302619,-31.560577367178034,-0.0011209354081635663,0.00022083742003103799,0.0019317878890296332,86040.61800873058,,,
4.87,-0.00446777191515887,0.0035506919808859293,-31.526515606491092,0.0007175573856864721,-0.0004661539776895548,0.0012909948344939635,,,,
4.88,-0.004205496377519563,-0.0023138526329501696,-31.4971313592666,-0.0008641116456769827,0.0006344289608325565,-0.0004939647411434126,85988.6823805544,,,
4.89,-0.0035338750352469925,0.002069458327921063,-31.47341110814413,4.33591706420002e-05,0.0004529014437107534,-0.0013120663022457056,,,,
4.9,-0.0005439651352747445,0.0011307632242467968,-31.44787350302941,-0.0009082557306585988,-0.0005100253648742727,-0.00030055695266302697,85937.03877830166,33.49862104738827,-99.33760563251934,1382.6177903966773
4.91,-0.002260953982651116,-0.00505044348498758,-31.43081934181543,0.0005389960804332406,-0.0006688174415744778,-0.00028240707154577227,,,,
4.92,0.00393317860834681,0.00419982852678055,-31.40692513204543,-0.0009425856741580447,-0.0007379854086503602,-0.0003424882236674954,85886.56796775745,,,
4.93,-0.002436670879946523,-0.001069542486620468,-31.382678751981135,-0.0006768826625537247,-0.0005079367302883318,-0.001999320516984838,,,,
4.94,-0.0002811096584494306,-0.004056055735230784,-31.351188074316273,-5.883964025064262e-05,-0.00023420155949003938,0.0005737412591602378,85834.27526557913,,,
4.95,0.003957620881602391,-0.004717346430442695,-31.31884894329675,-0.0001838002961049593,0.0007284438928721067,2.891471361478669e-05,,,,
4.96,0.000479968446713878,-0.002780863231090501,-31.29204202534758,-0.000856582390762746,0.0003721117763727891,-1.7023182804372484e-06,85781.15058706985,,,
4.97,0.002109287359715749,0.002037125270741394,-31.26537762054642,0.0009341102521776972,0.0005280030295943305,0.001135445718781373,,,,
4.98,0.003206045768714278,-0.005232966324271117,-31.23675004083751,-3.5468973326920445e-06,0.0006062170600724876,0.0012132394894961668,85731.28650717532,,,
4.99,-0.001322419949632759,-0.0023203981965944378,-31.206840884443515,0.0002740440175578781,-0.002297314382149857,0.0013353435205893584,,,,
5.0,-0.006454311576286536,0.0024270082452931023,-31.17547135709425,0.0016106104908654418,0.0005899119201906273,-0.0003719787989833694,85681.07152439641,33.4986054427413,-99.33764277760218,1397.620343075976
5.01,0.001960414014031826,-0.0014235664556538263,-31.153488990245368,-0.0008859185316011885,-0.0028501281501082144,-2.0193616751202235e-05,,,,
5.0200000000000005,0.004745287232317747,0.007703030102975681,-31.123424665956254,0.000939972916806112,-0.0019375372505957532,-0.0005639789983971461,85629.43552048963,,,
5.03,0.005225766861314082,0.0007006808169647451,-31.099715724724955,0.001200250261162919,-0.0014247468690742457,0.0011375297885638542,,,,
5.04,-0.0004763847987909586,0.002764512054528204,-31.076652334512673,-0.0005059254248541634,-0.0022214485948125998,-0.00038994998047440355,85579.5275032622,,,
5.05,-0.0008934717416013352,-0.00011699032820410485,-31.055751888046835,-0.0006769129859757309,-0.0006508562038886888,0.000260702767446853,,,,
5.0600000000000005,0.0026435271245740756,0.0050716289714695505,-31.026367219838587,-0.0017336981772747707,-0.0012090615109191323,0.0005082626181354687,85527.50690123625,,,
5.07,-0.006824843274075015,0.0038794292942572446,-31.004161108265055,0.00037956906103280415,-0.00033191306577720967,4.079574571749273e-05,,,,
5.08,0.0032094975858788103,0.00013773774304655685,-30.978157638237448,-0.0004614483360165262,-0.0007575986768320256,-0.002882235147222506,85477.48623142505,,,
5.09,-0.005773695949598652,0.0058536327460972926,-30.95293340997476,-0.0018488001080097334,0.00013280693414426738,-0.0016419964729209803,,,,
5.1000000000000005,-0.005185693960279034,0.00036041596173949826,-30.92363813958632,1.9077672203488787e-07,-0.0005844018737977859,0.002708923763289983,85427.00676269106,33.49863055435536,-99.33761815874283,1419.5967585971132
5.11,0.0009168305537010275,0.0032485631922114185,-30.898221130223984,-0.000226658578853384,-0.00031017178378443463,-0.0002742991800673172,,,,
5.12,0.0010468796451512778,0.0013117753841029559,-30.866957682021212,-0.0008736909078597744,-0.000301568109829002,-0.0005520629075839178,85377.6694374915,,,
5.13,-0.0038041829141539345,-0.0012881499946907021,-30.846291680976414,0.0014665727027616373,-0.0014675415194303138,-0.0007859061690878989,,,,
5.14,0.0020637540096101335,-0.0006835797816757092,-30.816320328536786,-0.0005542422562952601,9.23019965660858e-05,2.76093392145038e-05,85325.72094328719,,,
5.15,-0.0011325127861652705,-0.005310571605140719,-30.79829864635535,-0.0008852708217540825,-0.00013459017334857025,0.0017179698292119246,,,,
5.16,-0.0023727141565724947,-0.0016810361661215023,-30.764979724270162,0.0008290345742568014,0.003820473238950979,-0.00017440445293236392,85275.25128686722,,,
5.17,-0.0022969124608794404,-0.004902743178450972,-30.740587560572028,0.0006946727323662141,0.0007710981934450261,-0.000689712560429007,,,,
5.18,-0.003887527304541385,-0.001181065823079081,-30.712288782317422,0.0008428156994529711,0.0007971350327571497,0.00047214032908724857,85225.37783332277,,,
5.19,-0.0024870226148050456,0.0030806205089879903,-30.683576317819934,0.0008315375104311759,-0.000522886231532328,0.001408188184742397,,,,
5.2,-0.0032006961139096307,0.004977055101031777,-30.662329695994337,0.0005236240953620724,0.001191335446713158,-0.0008463142391074166,85176.74308218091,33.498625826919614,-99.33760418251416,1442.467571208894
5.21,-0.004657709522671162,0.0002144637263529469,-30.64479708864795,-0.0014315041082446536,-0.0002896729056131438,-0.00015881608220275412,,,,
5.22,0.00037113551616705314,-0.001698066281688942,-30.62228691472214,-0.0002576870531347989,0.0004273896638094585,0.0017551518325765697,85125.56388896577,,,
5.23,0.0007048557185572756,0.0027243019595503837,-30.597006883590236,-0.0013975570643347472,0.0019386277287028368,0.0003449993105843591,,,,
5.24,-0.003893238497376287,-0.003236766956069066,-30.580584560795486,0.00021767871270824058,-0.001071368920579475,-0.0012001811163080303,85075.55761733885,,,
5.25,0.0015514928018049534,-0.006880495302158216,-30.548721918914772,-0.0016195188435575545,0.00027757626580159967,-0.0004457756410273429,,,,
5.26,0.0012208050975074493,0.003403683220588995,-30.52348349897026,0.0007190508121494531,2.2672650832120025e-05,0.0007039354001078112,85025.73873248466,,,
5.2700000000000005,0.001266642655445617,-0.0024886217648343026,-30.502965489201586,0.0013465967071824444,0.00150562646845521,5.827499805793899e-05,,,,
5.28,-0.001063272949716442,-0.004352743212621005,-30.472406023456386,-0.0011517213234691747,-0.00034809183134398137,-0.0021549986861252525,84977.85318996453,,,
5.29,-0.0007719303639538486,-0.0008648404775361191,-30.449420650856663,-0.0006849477109975682,-0.0021069790602385083,0.00198970105050687,,,,
5.3,0.0008891770551893786,-0.001313894836741129,-30.42154324697661,-0.00015360716630954523,-0.0008874978434846352,-0.00029456927791337927,84927.2061233808,33.498559265076324,-99.3376426014807,1460.3084922273204
5.3100000000000005,0.000209270266647903,-0.0019379596496637648,-30.392476541459864,-0.0004843922584277732,0.0004489938433196493,0.00019835682145949644,,,,
5.32,0.0010580320737851603,0.0018672317871191164,-30.369719783569195,0.000503595751792035,0.0015150745456653015,-0.002355018088902846,84877.96720766058,,,
5.33,0.0021447511342298905,0.00036119272031780755,-30.342750550010113,-5.114874494229467e-05,0.0004191664906672059,9.24980477538435e-06,,,,
5.34,0.0016413022305943126,0.002323832629433624,-30.314315200696687,0.0004199599808528519,0.0018008303514845995,0.0004338804669933298,84828.4684225533,,,
5.3500000000000005,0.0010825984182085016,0.00016129813365254933,-30.29682781962339,0.0012070554957971141,0.00037636355573895345,0.0009602476718178398,,,,
5.36,-0.0045335131333497656,-0.0024265621548055357,-30.272206044673446,-0.000271160959334452,0.0004239249781766724,-0.0007222438159570249,84778.41198769442,,,
5.37,-0.0028751027091562403,0.0022703774681308683,-30.25511069006842,-0.0005538568509692063,0.0007158810587754611,-0.0006627511062707811,,,,
5.38,0.004029462108677232,-0.0010858283205632388,-30.23066293569057,-0.0004584095448182216,-4.5573707792122545e-05,-0.0005209557248857322,84730.63695923102,,,
5.39,0.0029945684054166043,0.0009033006395291022,-30.21423019561844,-0.0009999683523395587,8.708577945203561e-05,-0.001070445080287863,,,,
5.4,-0.0014469332092698268,0.00013073626145500682,-30.190367056408984,-8.312103568043958e-05,0.00015426418659326836,-0.0010423839463431137,84682.32689846354,33.498583342387064,-99.33765802052076,1483.323348354272
5.41,0.0009409412920263823,0.0018552457768671077,-30.15493069249331,0.00023863201802767336,0.00029317539815208277,0.00036561991392163636,,,,
5.42,-0.0009771384580386018,-0.001703617054205899,-30.13771518486706,8.125976686516115e-05,0.00013042919981676816,-0.0008101499166580188,84632.38040499075,,,
5.43,0.0031385799571713195,-0.0027637469025214878,-30.106861207598012,9.584336052670811e-05,-0.00013843227826809874,0.0005370969996805524,,,,
5.44,0.005121202716241057,0.0024711986118853466,-30.085359589205265,-0.000828551754842136,0.0006891281257361186,-0.001055723119990304,84583.89891985424,,,
5.45,0.001590617424294753,-0.0021189125360476274,-30.063116797486774,-0.0003158602364965905,-0.0006031585376712223,0.0005806076865244616,,,,
5.46,0.001524532974844723,0.000287212239491506,-30.0326188517592,0.00026840903035963445,0.0006135489414959394,3.123041462363126e-05,84537.24367079356,,,
5.47,0.00018155656402808369,-0.0021543595774207555,-30.011978347315384,0.001679583527524218,0.0002576540203663055,0.0005125887269583736,,,,
5.48,0.0034445921507274347,-0.001909792808912436,-29.983692550185044,0.0022461971376645565,-0.00019450609109528073,0.0004683482546443285,84487.6136574797,,,
5.49,0.002465866920331387,0.0009975526695981366,-29.95887395925796,0.0008440053275211198,-0.0020606680220000306,-0.0008657415393862573,,,,
5.5,0.002242963870400486,0.0006794451383985241,-29.94145758082272,0.0007197394301208094,0.001009967053887107,-0.0012093715381759776,84439.03811455266,33.49862235893505,-99.33763728154787,1515.4785481071362
5.51,-0.0005604888501346362,-0.0047466597347369825,-29.916593559143244,-0.00045982377018784464,0.00036507651441786094,-0.0012173942788638388,,,,
5.5200000000000005,-5.596515726913496e-07,-0.0006066277845590429,-29.901094051645916,0.0015422893448015312,-4.166583519044773e-05,-0.0014357062818670322,84390.40160613535,,,
5.53,-0.005135927354558362,-0.0035105090872225735,-29.877618627528538,0.0009573302991356829,-0.001382596393776411,0.0010319498830160785,,,,
5.54,-0.0023833618627323986,-0.00041174654815006315,-29.85000013293094,0.0008322918617324667,-0.00150078417999724,-0.0006757396092499408,84342.46714362399,,,
5.55,-0.005759682767748459,0.0006105739358749654,-29.822835951861666,0.0008539511613189011,0.0008185844015975562,0.0015064375270455125,,,,
5.5600000000000005,-0.001974561131905283,0.002820960726386955,-29.80631433218636,-0.0017144906613209526,-0.0018339371033567595,-0.000865450239000372,84295.47222812583,,,
5.57,0.0021899610090934368,-0.00041593945405231825,-29.782595940049937,-0.001279605092144385,0.0007192828789916793,-0.001505948208760028,,,,
5.58,-0.003737413102778172,-0.005292037362231659,-29.755349428146268,-0.001282548116313615,0.001515374279270663,0.0011380093621106214,84245.62976182067,,,
5.59,0.001199471249037735,0.000557772232582893,-29.73203669204911,-0.0005895443552444578,-0.0017601541320907755,-0.0005803372544411207,,,,
5.6000000000000005,-0.00014918609442900413,-0.002205028163564136,-29.714885114230796,-0.0009722532749041829,-0.0005872980099909361,0.00044555853128051446,84198.58493539513,33.49862511043177,-99.3376516570389,1539.3034338660486
5.61,-0.0018096308259664341,0.001628289906246106,-29.697997273672993,0.0005172866819901367,-0.001361655102410789,0.00021588397627198168,,,,
5.62,0.002390619942922743,-0.002900298219168986,-29.674938777675433,-0.0009759950081376114,-0.0009386568741686587,-0.001124851942572074,84150.66169003482,,,
5.63,-0.0016075565085432546,0.008023042346225808,-29.659059808599757,0.0014688869345468002,3.195679231936218e-05,-0.0013667938456310086,,,,
5.64,0.004262714810736533,-0.0029915481735271455,-29.63273262062673,-0.0009203430170478665,0.0011996522174037914,-0.0021844232193749306,84102.15165037586,,,
5.65,0.0021962990999481674,-0.006019980640462733,-29.60446176601245,0.0013930217400448686,0.0005581002181788746,-0.0016849710181197485,,,,
5.66,-0.0016152466075201426,-0.00013693841976504935,-29.583917234704696,-0.001011996803472219,-0.0004188406113984458,-0.00037463585814225415,84055.049790605,,,
5.67,-0.0010513943694949596,0.0031685499857786415,-29.56169494262264,5.1425336826815256e-05,-0.0015772634829282354,-0.0002953331730395967,,,,
5.68,-0.008060273488567318,1.2936723035110673e-05,-29.532245057246836,0.001713618362406041,-8.096720381731203e-05,0.00023700619179197507,84007.89186000133,,,
5.69,0.0010301295024403418,0.0006679144509717854,-29.51648909045152,0.0014963724724590722,0.00018185822083186594,0.0007229493286565105,,,,
5.7,-0.0003810753590771877,0.0012628161208210731,-29.488577194988906,-0.0009547805370219667,0.0013062824593693797,-0.0013191590736204627,83960.37487055657,33.49861629074568,-99.33768111014409,1558.4507094978314
5.71,0.0018585531604788362,0.0008427545697586337,-29.464757487008992,-0.00044131668381529755,-1.6006322452111774e-05,0.0011619020973214146,,,,
5.72,-0.0008011752340752961,-0.004879967803780837,-29.443611114876603,-0.00055048085224198,0.0011741864365296037,0.0008844965311372079,83913.05994936467,,,
5.73,0.0006227954129418633,-0.0027537492502342034,-29.42401805365183,-0.0003763276437358266,8.440341915202862e-05,0.0013309953059805369,,,,
5.74,-0.00025168257213120193,0.005129366841791434,-29.399670959686723,0.0009394738108765321,0.0007789513049515675,0.0016596028577298939,83867.35615374139,,,
5.75,0.0008438501010465567,-0.005314196864785812,-29.377838344120637,0.0001301049278073661,-0.0014334140321486215,-0.0014153295014343753,,,,
5.76,0.0005653179322400876,0.00032636736079829796,-29.360976454698328,0.001577807537241931,-0.0009183958199311308,-0.0011949639664230573,83819.21121307362,,,
5.7700000000000005,-0.002431179483484308,0.0007804401416098993,-29.336661866776396,-0.0004119244402795351,-0.001698835290359525,0.0015069773503889156,,,,
5.78,0.0009770431775904974,0.0032611392180064234,-29.321754097728636,-0.0007420520627046044,-0.0022247774839094566,-0.0015836623817358695,83773.28694873878,,,
5.79,-0.0035666847613243175,0.007110642956488757,-29.304245462447987,0.00028132767808260406,-0.00016972702098407943,0.0004781201198269461,,,,
5.8,0.0020688343058988907,-0.0004993587034580275,-29.27814722269155,0.0011630088090591355,0.0010576367290462414,7.327114434458919e-06,83725.2150955668,33.49860074102963,-99.33758343055104,1585.2534020600558
5.8100000000000005,0.0008999304144186946,-0.004852484327707254,-29.256232607453136,0.0019727247138049795,-0.0007583955553382831,-2.132887380377498e-05,,,,
5.82,-0.00011073670115025287,-0.000870412303892164,-29.2281386134126,-0.0022069521868218096,-0.001476005080212566,-0.000950802099144967,83679.62463059742,,,
5.83,-1.9294665254550234e-05,-0.003760380249727459,-29.213991049501278,-0.001018838311074361,-0.0003394059414125667,-0.0017515090323030858,,,,
5.84,0.0009204776828445938,-0.0011830147464569221,-29.187599230341295,-0.000954358031491575,-0.0005104577465658318,-0.0008877009011416156,83630.8839138359,,,
5.8500000000000005,-0.004672488824451159,-0.00017230229634573608,-29.174336664727047,0.0009672953763455485,-0.0006163686456830814,0.0010978051499306305,,,,
5.86,0.005104268848805683,0.0017790850734268693,-29.151863634339257,-0.0009968141275990745,0.0016487727585479668,-0.0004401471630793115,83584.47926685825,,,
5.87,-0.004035692639239537,-0.0025895252844753518,-29.134258717483167,0.0018723030462676042,0.0011739415309935809,-0.000639147500490702,,,,
5.88,-0.003658851030562762,-0.0041731955689578255,-29.11089799818003,-0.00026165224950636817,-2.6350933877908683e-05,0.000330943515460776,83539.17961823985,,,
5.89,-0.0034982747279687526,0.0059254550205116874,-29.09801438900507,0.00021065143708003228,-0.0002486231633374658,-0.00017274233585827018,,,,
5.9,-0.0006204843115391794,-0.0032320504577564146,-29.075716423351338,0.0022646106530309464,-0.0015197010430538877,0.0007514633196670765,83492.55400188311,33.498619318389565,-99.33755546061398,1611.2968000869223
5.91,-0.0015281508851407405,-0.000463494739937741,-29.05243672012984,-0.0019394629284707001,-0.0014797624653496671,-0.00029262607337221123,,,,
5.92,-0.0014256776399957686,-0.003076019706559564,-29.02803960581122,0.0003254776359455085,-0.0009195431014115796,-0.001466204499863975,83446.93256782129,,,
5.93,0.0019003905203664032,-0.002287597922126673,-29.002800478552746,-0.0012635359511061893,0.00014939654034095098,-0.00016951560723966436,,,,
5.94,-0.001074334217680727,0.005337157512877004,-28.98017151698453,-0.0006079731041217204,0.00010769795705722596,-0.0022421710804666306,83399.5237374665,,,
5.95,-0.00042453214916924264,-0.0012513700476514398,-28.968079533489522,-0.0006118824805541581,0.0005787093634960548,0.001844800359360707,,,,
5.96,7.42949504967207e-05,-0.0006274583677661925,-28.944507173971914,0.0011035546875102981,0.0004240387177186361,0.0007837223272244799,83356.64318764636,,,
5.97,-0.0020473752305873102,0.0012519552756612372,-28.924066596853617,-0.0005859704430108184,-0.0016141536195028404,-0.0013200550892103185,,,,
5.98,-0.004119297937241709,-0.002386689772815803,-28.90796683962386,-0.0014262863056597188,0.0009572771324429693,-0.0011447522339570091,83308.19321396416,,,
5.99,0.00012120749501028766,0.005364615223670546,-28.89536160277419,5.327529276541036e-05,0.0014222846601621383,-0.0015275094152661821,,,,
6.0,-0.0024477400633208567,-0.0002716345404754637,-28.869053301888716,0.0002316177188513602,0.00042233390269922494,-0.000577664573331379,83263.00266636036,33.498698335457,-99.3376577265845,1623.4132299638063
6.01,0.0018140861051553854,-0.0026268080115316086,-28.84803005154292,0.0009373350380387989,-0.0015348647723387487,-0.0010472944519862339,,,,
6.0200000000000005,0.002293975969989626,-0.0021000565339557753,-28.82978436836873,-0.0013069708764668715,-0.0010264235960928802,0.0011159062477380988,83217.17313500131,,,
6.03,-0.0006402654444823149,-0.004575201869935014,-28.798894312847473,-0.0005691403664611883,0.0009931355004515316,-0.0004489947821741171,,,,
6.04,-0.0023421030247073407,0.0015343053869317459,-28.789410518165575,-0.00046303135061321845,-0.0003214820615984466,0.0003257752374711169,83171.73907483084,,,
6.05,0.0008822467989976078,0.00039905512822813427,-28.7643378731917,-0.0007558382729972671,0.00024331920715711143,0.00038859061777901926,,,,
6.0600000000000005,-0.0023143572026240195,0.0012708261348912215,-28.747738169164457,0.0008302085794023218,-0.0014420570165826574,-0.0003800723254284735,83126.13351999025,,,
6.07,-0.004776408413350517,0.0025969362667464997,-28.73067043721784,-0.001252977655289646,2.7647160301611352e-05,0.001220677986675243,,,,
6.08,-0.0003544188457551334,0.0009407972494491015,-28.70850607728656,-0.00044735551896306976,-0.0008119844459701006,-0.0008801189929178233,83081.5349359095,,,
6.09,-0.0035867533702536873,0.004343933351148571,-28.69275509873812,0.001717949006956899,-0.00020950594243074672,0.002138459763321499,,,,
6.1000000000000005,0.0009392840422783199,0.0012946961364787763,-28.673690244616786,-0.000775428700914714,0.0012674677473555715,-2.997104678641272e-05,83036.57554157049,33.498611515135025,-99.33756848804562,1643.3158266099708
6.11,0.0038870037812294127,-0.003435341337936964,-28.651887035691168,-0.0006027962892865172,0.0010918161409640558,-0.0023143980260789832,,,,
6.12,0.0005944509201697973,0.0020208599647748107,-28.625618314339263,0.0014846622585116221,-0.0013689159239303622,-0.0009005753181562912,82990.9243504212,,,
6.13,-0.002060232948211961,0.0058876066416162914,-28.612201916261572,-0.0001739665670085109,-6.825223866940916e-05,0.0004104275796279499,,,,
6.140000000000001,0.003197826799173447,-0.0028960607256837954,-28.58723146055442,-0.0007908392599826909,-0.0010407401472555377,0.00138109828292884,82945.17291462123,,,
6.15,-0.0003048492012758308,-0.0010333655814751955,-28.570914337741765,9.917347619328818e-05,0.0017731058188537017,-0.00014089989951588725,,,,
6.16,0.0005119325371237673,-0.005145556336428895,-28.546789558764743,0.0011109471649778518,-0.00022784934094348104,-0.002766915201868399,82899.8293495441,,,
6.17,-0.0030013366669102786,-0.000374317001483035,-28.531184607849273,0.00026134532423449007,0.0012033412655848763,0.0010464694443896698,,,,
6.18,-0.003669971262797451,0.0025504649227691997,-28.519299508868947,0.002182911215417511,-1.5438193796947342e-05,0.0010557772136036258,82855.29159102042,,,
6.19,0.002562415358669985,0.00205651663617942,-28.50251096454572,0.000971873964747047,-0.000102124932888033,0.00018558147730365378,,,,
6.2,-0.0021332913577986412,-4.898930255735344e-06,-28.47574333976704,-0.0011603830186461205,-0.000757601300879549,-0.0009981479004902798,82809.85466794643,33.498568855198556,-99.33764206784836,1673.3803947921294
6.21,-0.00032255505008099965,0.0010256708867915675,-28.45732905280445,-0.0006988725906319843,-0.0005024933702165627,0.0013937796263801567,,,,
6.22,-0.003959945409698973,0.001443940168069318,-28.434014099768792,-0.0009605620858348513,-0.0003707075805224946,0.0012387452572166556,82764.92602835775,,,
6.23,0.005564239844137225,0.00207657586622393,-28.41760065839751,-0.00020246840995517506,-0.0010898168215019975,0.0015741887969810053,,,,
6.24,0.005860670737890179,0.00032517250086083293,-28.398191302298105,0.0002925642382374966,-0.0001576506627883625,0.0009068196204649652,82720.36454543655,,,
6.25,-0.00014039504278123103,-0.002410405809143774,-28.3792737499475,0.0004541995663157337,-0.000886254470334504,-0.0004224456132330097,,,,
6.26,4.29528107438691e-06,0.0006551809747380291,-28.362833226654082,0.00114715529511498,-0.0017513594169964604,0.0016036428397573628,82674.98543224929,,,
6.2700000000000005,-0.001119408492093485,0.0035247482593092263,-28.34765576642492,2.501405147206056e-05,0.0012151610028849971,0.0006744423285838945,,,,
6.28,-0.003931724456339916,0.005557131493374792,-28.32542800189024,-0.0005495653332070332,0.00043127571842882533,0.0007653977927965915,82630.64515507343,,,
6.29,0.0024995728443686187,-0.0005534772685693971,-28.31277057809401,-4.3135161975309074e-05,0.0002596218452171018,-1.0449568487872314e-05,,,,
6.3,-0.0024241386532389978,0.0005678026908948559,-28.295383433664536,0.000900045996806382,9.636053881911203e-05,9.784146811361382e-06,82586.76686965603,33.4986410005619,-99.33764219998463,1691.2815898244862
6.3100000000000005,-0.0022851696042698873,-0.0018163079735066165,-28.271517457444723,0.000555257695372528,0.0014986266346443946,0.00047838702594872937,,,,
6.32,0.004198506065966448,0.00114740850136536,-28.254499781542993,0.0004773474833400616,0.0011345994777659533,0.0015196017930764146,82542.69082655366,,,
6.33,0.0014731541032942791,0.0031907569076976743,-28.232617620642735,0.0009993180049888022,-0.00020008198123914133,0.00042631637569714623,,,,
6.34,-0.0029728520906219837,-0.0025223526798701244,-28.20778229194757,-0.0010399541035427328,0.0010570919570510884,2.3398606454731426e-05,82498.51268096699,,,
6.3500000000000005,0.0031684291527028434,-0.004248833534785666,-28.19315528479896,-0.00024966263474533956,0.0006551473180881112,0.0004650272200779709,,,,
6.36,-0.0015528417507674427,-0.00012526048675236653,-28.178103645167557,-0.00029567568592934134,-0.00031569892960978693,-0.001041116549703081,82454.63638587247,,,
6.37,-0.0010871201723930371,-0.00026173184190954974,-28.1604773589484,0.0007791535994264314,-0.0010932258869942217,-0.00022883060342034035,,,,
6.38,0.0016779158013993402,-0.0071527083416767345,-28.140255201605147,0.0006590657322974766,-0.0001478760471957842,0.002335824610346468,82410.52434821568,,,
6.390000000000001,0.001932179336048489,-0.0006275151867297494,-28.12783425796561,-0.0008335001792379182,-0.00024609268122904827,0.00015586024040719016,,,,
6.4,-0.00011325614188018013,-0.0008310519356361974,-28.107349107050908,-0.0012641435672698996,-0.00026382154010894847,0.00042736190246645347,82366.95893274187,33.49863836346945,-99.33765234186318,1718.6006828322234
6.41,-0.0002708809679008471,-0.00566299741826437,-28.085885612959945,0.0006672477286949902,-0.0004642459230587295,0.002348674796057962,,,,
6.42,-0.0026234474462933886,-0.00035271110137627615,-28.06785491205102,0.0006001684149086132,-7.2901035941898e-05,0.00010914971501084091,82321.63350520404,,,
6.43,-0.004993450807179258,2.139014219182984e-06,-28.049857446956356,-0.0013147763202091861,0.0015365346353598888,0.0008419346089017512,,,,
6.44,-0.00019223055442944872,-0.0032177318754146663,-28.029262794190227,-0.0020455481670287635,0.0006215530372660732,0.0007863653529825168,82279.1805383438,,,
6.45,0.0035354282677913613,-0.0034762596011985564,-28.0071352298669,-0.0010940464054218224,0.00033065790803241254,0.00019508202926472103,,,,
6.46,0.0026056750169789747,0.0069550656047055685,-27.99741415831287,0.0007520241249434432,-0.000766998299148,0.0004826314087597302,82235.14573293127,,,
6.47,0.0019058207418027019,0.004622140930535213,-27.9778714978595,-0.0016775930154030345,-0.0005653678931984991,0.00020972135037471124,,,,
6.48,0.000479435632479855,-0.0010256029976301925,-27.963619815191972,0.0006172854313397104,8.059784920028019e-05,-0.0005685161979096944,82191.45290835874,,,
6.49,0.0029633884098757214,-0.005562088638006512,-27.953494404305676,0.0014648568399444543,-0.0003893576863989587,0.0012854566928699386,,,,
6.5,0.004123444147935789,-0.0012290816003284399,-27.92525565846659,-0.001390485637940049,0.0003743201011617297,-0.0003495610487875946,82148.7357774338,33.49863043040997,-99.33763484974291,1731.5114900300823
6.51,0.0011957141468048739,-0.0002382501201143695,-27.914181277339623,-0.0001336677877466328,-0.0012973326825407327,-0.0005272814302003182,,,,
6.5200000000000005,0.004575328481755213,-0.0049933071073604935,-27.88644604181247,-0.0002743862084003655,-0.0013874548781706107,-0.0011697568330683906,82103.95932405259,,,
6.53,-0.005471870384595203,0.0010367732196199764,-27.869902997851266,-0.00041221906229732113,0.0027210660603197794,-0.0017062458711093631,,,,
6.54,0.0020840269581982583,0.0021065937998304717,-27.850171230795485,0.00018400153740182293,0.0012863434181957095,-0.00043861223470378875,82060.3170122735,,,
6.55,-0.0009322288556544919,-0.0008572875382107029,-27.83144314346892,-0.0011408016625053816,0.0007197158754838723,0.0006515841335853118,,,,
6.5600000000000005,-0.0018662164857898287,-0.004001182553545765,-27.814273997610037,0.0009393126264912476,9.533379229869002e-05,0.001123337290609083,82017.47548468798,,,
6.57,0.005937907081528344,0.001278941416924347,-27.806552340258655,0.0009133847834460645,-0.0010167893483601586,0.0014097216511401206,,,,
6.58,-6.076271369866299e-05,-0.0006827911405938593,-27.785221901143448,-0.0007884863137754847,8.452470918528406e-05,0.0012045940471546643,81975.62960267458,,,
6.59,-0.0027499552460607526,-0.0042303018144368475,-27.76850018884176,0.0021218401773939375,0.0004636269150140409,-0.0016175772147997592,,,,
6.6000000000000005,-9.563698412274807e-05,0.00399546903927726,-27.751623535384542,-0.0018381930476835647,-0.0009900051302712445,-1.2079815323398262e-05,81931.91400261481,33.498596261897035,-99.33766081899243,1750.8630885493396
6.61,0.000490743857416067,6.513456098124589e-05,-27.72686476046402,0.0006010084076973124,0.00041568664360286834,-0.0005029139550990302,,,,
6.62,-0.002973497484146211,0.0023539504948323644,-27.707301502756444,0.0010276188554928952,-0.00025589226984869907,-0.0008302488832049867,81888.92737171825,,,
6.63,-0.00504581621075007,-0.0006016828605319725,-27.69799598334561,-0.0006874558133760729,-0.0002401987926623436,-0.001194128549981577,,,,
6.640000000000001,0.00012734841198556527,0.0013587568818758898,-27.67878026003163,-0.0015725831214898104,0.0019481317638768338,0.0007120516515000827,81846.69132921501,,,
6.65,0.0023126440318347557,0.0002538291646150618,-27.66436491594647,0.0005596369153386636,0.00020204288742261604,-0.0005912692530894579,,,,
6.66,-0.002325232926201861,0.002606039758201577,-27.644780806593577,-0.0003651057121121613,-0.0005439682631937981,-0.00043247267502048665,81803.30446646958,,,
6.67,-0.0004903609381158234,-0.0002036111553641151,-27.62711350395461,0.002279623300152235,-0.00018077511183982678,-0.0003054246632057036,,,,
6.68,-0.0005427266470992094,-0.0029070475798183104,-27.61287596739375,0.0018355287338376913,-0.0019663083939164966,-0.0005870291276263466,81760.93160917671,,,
6.69,-0.0024627806165465815,0.0006540942140853638,-27.59900734369044,-0.00017361703270311971,0.00011945021206089322,-0.0007904668287477815,,,,
6.7,-0.0007597921766050779,-0.0014230916019858488,-27.58522074783096,-0.0017651048702596365,0.0007106206178223529,-0.000526667347488293,81718.45101871577,33.4986584732542,-99.33766380904278,1776.4350616722056
6.71,0.0006181214324970613,-0.0021180431057350665,-27.561278087306434,0.0012093199151527291,6.0880057533223865e-05,0.0009354489838219431,,,,
6.72,0.001880702449376781,0.0002662178896693433,-27.543428606661642,0.0008807692459268733,0.0019093470874706143,0.0007000827707762515,81676.1171994697,,,
6.73,0.006347301038481345,0.0018168848459078203,-27.52294746257322,-0.0005396635498501454,-4.132381497364897e-05,0.0019173567332436288,,,,
6.74,-0.000395467663292746,0.0003583995302496422,-27.508385256478324,-0.0023838997282717026,0.0006826622723271729,0.0008479536910781738,81633.59913033935,,,
6.75,-0.0005567248548302888,-0.001954213440859221,-27.4842255775863,0.0007449686307616674,0.0009688808616375012,0.0018570088426054566,,,,
6.76,-0.0030845871983241476,0.004132377987428197,-27.477338651763006,-0.00031598466298880644,0.0008690610419802427,-0.0009441173486269362,81589.70134163157,,,
6.7700000000000005,-0.005145755562749655,0.0022150675995931796,-27.456601541685764,0.00018909827221022193,0.0006705584307686765,-0.0014401607337318338,,,,
6.78,-0.001986607818750605,-0.0034180070028826913,-27.44289507372885,0.0005008177404536171,-0.0011755222072398186,0.001068151934966129,81547.65598449984,,,
6.79,-0.0033779238436230327,0.0007610097984672039,-27.42970992595735,0.0009672367031110553,0.00044362022080282035,0.00027037618547322235,,,,
6.8,0.0016041914489420906,-0.0007567592127996401,-27.411678527207503,0.00011104775426411548,-0.0012375776689795839,-0.0006061863974995591,81506.96043317602,33.498619645161284,-99.33757938588647,1801.0685556396636
6.8100000000000005,-0.0005092162712417186,-0.0011979047140291523,-27.395350564068597,-0.0013357710189570112,0.0007539371688056409,0.0001209164866867277,,,,
6.82,0.002230018114103995,-0.0029095558187794395,-27.373891386153897,0.002027209110775011,-0.0011301695470668613,0.0014119315444805194,81466.623349724,,,
6.83,0.0005811367380217783,-0.005345601866311834,-27.358850400905645,-0.00015549873328554105,0.0006131077285298729,0.0005857729505888339,,,,
6.84,-0.0023434168107679195,-0.0064002581714333005,-27.343750241948378,0.0004908907068970114,0.001966682331257544,0.0008426790058113909,81422.78309203687,,,
6.8500000000000005,0.00047246887720331116,-0.0028207375079712595,-27.321833143833295,-0.0013919467962816602,0.00030259407614232356,0.00041215801256565667,,,,
6.86,-0.004132693501509867,-0.00239177613536082,-27.308302172144543,-0.001748785702656303,0.00118495096538052,-0.0012330598250554661,81381.36017728702,,,
6.87,0.006046590438355986,0.0002573842969326705,-27.293242485607347,0.0016246858744234077,0.0005325919168769054,0.000566830600491876,,,,
6.88,0.0030232436770729148,-0.005456446210739676,-27.27370262692214,0.0010014764192233373,0.0008306355243236156,-0.0009877132292655673,81338.53715143279,,,
6.890000000000001,-0.0022761896401346043,0.0005469182116124028,-27.262671860939527,0.0009690312781936354,0.000225651188719386,0.00031922388900455946,,,,
6.9,0.0012302775350681952,0.004074730180703186,-27.247718273170143,0.0010528914833176875,-0.0012780855107058409,-0.0001538373843387573,81297.89775618169,33.49863722158388,-99.33760226030223,1817.2684572714677
6.91,0.003014068835051871,-0.0006205105485818217,-27.23219819038768,-0.0004697567802923654,-0.00034187527161771985,-0.001177946708008796,,,,
6.92,-0.0005105843496349009,-0.002493147817235383,-27.219914952643705,0.0023264006068690075,0.00010027295411959177,-0.00027019870534768925,81255.48312950655,,,
6.93,0.0016316273935507951,-7.069419937618587e-05,-27.201427312731006,-0.00043517276123960987,-0.0013354872078602568,-0.0003308016461699215,,,,
6.94,-0.0013726764639362297,-0.00442774995140993,-27.184914117287498,-0.0009652142876169367,-0.0019079934197439115,-0.0008804516357157674,81214.80044117504,,,
6.95,-0.001412241055861971,-0.0021611387643810276,-27.170662570496944,0.00046174314239158363,-0.0008028632293312849,0.0006574637285215951,,,,
6.96,0.00016789663483128786,-0.001981868866212448,-27.15331992002623,-0.0020682566334425698,0.0007248299901459252,-0.0017605556225633726,81173.40723810399,,,
6.97,-0.0036814644294625195,-0.006522712831074363,-27.14299693668674,-0.00018102591017675685,0.0005937263857389826,0.0005959321103313142,,,,
6.98,0.0016209215885032158,-0.0021074880424822267,-27.12195487587508,0.000444269803300776,0.001315292225425062,-0.000256966763869467,81131.65906244266,,,
6.99,0.006199572856235058,0.00545505612017713,-27.10148430549264,-0.0006962673338865105,0.00022763452254019606,-0.0006951312746199241,,,,
7.0,0.002682728095991293,-0.0030306755679249233,-27.089225523502435,-0.0009705440253941731,0.0013598425730089875,0.0018788815759315002,81090.17563242832,33.498600172486654,-99.33761553139774,1831.3953089145411
7.01,0.003134012636570425,-0.0011678366946069056,-27.072574732855326,0.00026573211206461016,-0.00014528118592912378,-0.0011984683564617298,,,,
7.0200000000000005,0.0006549944439788434,-0.002627139608671633,-27.061122315167754,0.0006475745165125332,0.0007141444045808281,-0.0011636089133280306,81048.7891968869,,,
7.03,-0.0017241834773374656,0.0015727088932689637,-27.049596596409103,0.0013661273702667608,-0.0010968538345510399,0.0002679710672106322,,,,
7.04,0.0006712130525294341,0.0015128478513921346,-27.026296984015485,-0.0010300197138840277,0.001276143583252311,-0.0016465403467509658,81007.2077448549,,,
7.05,-0.004702517800486397,-0.0037684311211946308,-27.018405463096247,-0.0003707431519437196,-0.00015841952997457646,-0.00019348965119894484,,,,
7.0600000000000005,0.0014454150644448184,-0.00020401772012788004,-26.99268750407811,-0.0006593998064803966,0.00036285504632216836,-0.00013580025467962675,80966.77348610565,,,
7.07,-0.004946671956029328,0.0002398451752389275,-26.98240803436205,-0.0007865266086223327,0.0009328824774122468,0.00045895264565006704,,,,
7.08,0.0023922062375746796,-0.0008787405495340592,-26.966458868774343,5.0314942975323666e-05,-0.00023478185367773274,-0.0006991156411370539,80925.10684453587,,,
7.09,0.0022909511965472766,0.0061626302958493724,-26.94974652608535,-0.0002614838965092648,0.001440971807799216,0.00032878971687258,,,,
7.1000000000000005,-0.0010411562592196634,-0.001843510089171192,-26.928778319200255,-0.0002811898840924395,0.001206627837080565,-0.00011883299287882842,80885.63638433782,33.498635781490684,-99.3376017793308,1860.9218576684739
7.11,0.006477157321024699,0.0029850903937167187,-26.915299267084222,-0.0007010831800292241,0.00013530389229064169,0.000761075204450816,,,,
7.12,0.004736846993142171,-0.0006424669657556384,-26.906085415394898,0.001271460217506656,-0.0005845047142401452,-0.00045752857680139003,80844.78454319228,,,
7.13,0.000669089339137225,-0.002370248061990377,-26.88990040011453,0.0008253730109300414,0.0021436550914863983,0.00011120084109497078,,,,
7.140000000000001,-0.0025769042553719433,-0.0012973406539260452,-26.872279931254802,-0.0021255018824588227,-0.0005101533480158826,0.0004563972688713473,80803.33595900427,,,
7.15,0.00041976734661439266,0.004842301152190853,-26.863196821214334,-0.0020974308151618104,0.00047476463958561377,0.0005721403585275599,,,,
7.16,0.0028776205218045466,-0.002379940377501229,-26.849500948609304,0.00016306602357633396,0.0010275208776469715,-0.00186917550823228,80763.35777788688,,,
7.17,0.007112766550372864,0.0002162358840470357,-26.834525191895,0.0007774789879126137,0.0005177534633507043,0.0006420440718981742,,,,
7.18,0.0021433443917326716,0.0008735500205082965,-26.819106171107464,-0.0009898750758511017,0.0007526191147253576,0.0005035183257925074,80721.78783590035,,,
7.19,0.002088227097424147,0.0013415530823015663,-26.806534385610092,0.0005163456985947245,-0.0001866905743233953,0.00017031862068170826,,,,
7.2,-0.004508590126833945,-0.0026956147004202715,-26.792519576417213,-0.0014250696554528861,0.0016984807305996728,-7.008945052186203e-06,80682.15832259215,33.4986160176611,-99.33760212941516,1894.8598562581699
7.21,-0.004842526006436086,-0.0011148933178949387,-26.772146297251382,-0.001190267991348378,0.0010805763781408038,-0.0011988965036536527,,,,
7.22,-0.0009182138643073146,0.0010277635022401446,-26.76018636859668,0.001184082511140544,-0.00011572472680224581,0.0028129249403254066,80641.75246856788,,,
7.23,0.00015748708865417313,-0.0022355870532576863,-26.741327828320333,0.0004082567300542956,0.00029600074347189476,0.0005282229872298085,,,,
7.24,-0.003678735973779869,-0.0019113319671807062,-26.72216764100038,-0.0009265390045224878,0.0009797130057509482,0.00046902466389311086,80601.43562840103,,,
7.25,-0.0005961930461708974,0.004568607346110215,-26.710828873320406,0.0003374725049007059,0.0013509127390195492,8.583888160941182e-05,,,,
7.26,0.0021060162898207976,-0.0005086559555511625,-26.694961485920345,-3.817041686451109e-05,-0.00033027198060107005,-0.0001656352338779585,80560.13202000654,,,
7.2700000000000005,-0.00622803467819299,-0.003940219123511287,-26.68145523565267,-7.198614568957325e-05,-0.0009052958745097207,0.0003081584171737991,,,,
7.28,0.0005849901046981462,-0.0006679761698367916,-26.666320009624073,0.0005236109376219071,-8.15440942291165e-06,0.0008645834568143619,80521.34479188424,,,
7.29,0.0012961896207312042,0.0005794294640463782,-26.657047581716686,0.0011014103468838473,0.0012062191225739006,-0.0007306388056982958,,,,
7.3,0.0014237467012503465,0.0005373412232443119,-26.639307988883026,0.0024001191261581864,0.0005973603549179779,-0.0010203856022492329,80481.89665751427,33.4985821732461,-99.3375932835968,1902.5753050962373
7.3100000000000005,-0.002796777344703863,-0.0013431866597906782,-26.623267169936458,0.0006231254225524182,-6.195432428771681e-05,0.0003143296495554063,,,,
7.32,-0.0034749908981232674,0.0011176049381134273,-26.611877936451606,0.0009257778608648546,0.00023245370290443746,-0.0012564256010383352,80442.19720550672,,,
7.33,-0.0011110422045846502,-0.0032573347827936686,-26.591937346340746,0.0002609796773294414,0.00030635843934914177,-0.0009460100715597906,,,,
7.34,-0.0021138988448222234,0.0014903841518650205,-26.57333323165101,0.002442956331230148,0.0007586889271338079,-0.00024166877111804187,80401.96722108673,,,
7.3500000000000005,-0.004792254106446495,-0.005166772056147639,-26.563181014365284,0.0020557144768462467,0.0010741569943997047,0.0010359201109826767,,,,
7.36,-0.004151961584413412,-0.004862240817717058,-26.545198118275295,0.0015910461476918848,0.0007629931104219574,0.000711473095067988,80361.38982994936,,,
7.37,-0.001937833106142272,0.0008096177640036257,-26.538195961590574,-0.0007370091484389937,-0.00019298344455835365,0.0017142136439102572,,,,
7.38,-0.004508246053928129,0.0023017073784820314,-26.5154846188603,0.0022753968361529904,-0.0001434805357143752,-0.0016534290070369,80322.37125320468,,,
7.390000000000001,0.0014989109732419404,-0.0037182386975707082,-26.501182053051217,-0.0014538929068828998,-0.0018092156636183743,0.0002625684582691852,,,,
7.4,0.00017049946092882203,-0.000314459615629032,-26.49356786394604,-0.0001137986322120624,0.00035507357999060916,-0.00029552870105823683,80283.24692094368,33.498630122375594,-99.33753603065763,1914.7751953193124
7.41,-0.0018498469817329172,0.000884431667624669,-26.481374480586695,-0.000392263473921923,0.0006620539847408981,0.00015085516902660812,,,,
7.42,-0.0005915833671108363,-0.003074805357513986,-26.472720770447093,0.0014243501226642661,-0.0006099655125601475,-0.00105470995107021,80242.90115659854,,,
7.43,0.0029408859567146284,-0.002811586491614425,-26.458255326076305,0.0021670322857723677,-4.376449499911456e-05,-0.0009983569444825247,,,,
7.44,0.00149697011538665,0.005778254708011103,-26.444587311284682,-0.0003534128904965132,-0.0009558245321850167,-0.0007273011291034757,80203.53320469937,,,
7.45,-0.0014178828563703085,-0.003480234271550937,-26.434749203759914,0.0007556611498792022,-0.0013438391824568841,-0.00105546611377986,,,,
7.46,-0.005317691593118573,0.002157419232208372,-26.411825512711232,-0.0009084330660434777,0.001142200884375325,0.00023924561967400492,80164.54788593679,,,
7.47,0.0017038022382879223,-0.0036985289150309893,-26.394156877718043,0.0006425567991962136,-0.0013401360180978637,0.001281937763059766,,,,
7.48,0.004918543710334837,0.0010256415514498006,-26.379649588884643,-0.00030682601790378583,0.0009705146934005536,0.00046479725370153886,80125.30449920785,,,
7.49,-0.0009642574939849587,0.004044329051529068,-26.367041302906333,-0.0023440633665690823,0.0017533032726611828,-0.0015816462719051023,,,,
7.5,-0.0004298002679938937,0.00502181561842844,-26.353979606729713,-0.0014655234619721012,-3.049533131624017e-05,0.000723041588761786,80085.78820494072,33.498625323374405,-99.33760049821151,1940.0253123667876
7.51,-0.0002696616620501984,0.002000109597947374,-26.332301899046858,0.0009990015659655325,0.0005721262047919093,-0.00020228630665132172,,,,
7.5200000000000005,-0.0024145324948417536,-0.0032008398907938064,-26.319766695054398,-0.0016712774428842927,0.0003684867704364579,-0.00013152779549952258,80046.67038715347,,,
7.53,0.00494231704619363,-0.0013457227956337097,-26.30861146517395,0.0003724076791011309,0.000127853338916744,0.0016527744518161148,,,,
7.54,-0.0016754255294732722,0.001542598357173257,-26.299175411378744,0.00037622509956455625,0.0022992600677592605,-9.92669042105402e-05,80009.07596489924,,,
7.55,-0.004617627862314217,-0.000820044346446691,-26.288488999488028,-0.0007592708874639862,-0.0002385337359835171,-0.00012605290914507282,,,,
7.5600000000000005,-0.004835461431555455,-0.00737751800673618,-26.27664018948999,0.0005023014309439226,-0.0007456661753830628,0.001203955012853964,79969.30718887264,,,
7.57,-0.0026125548449325146,-0.0022968499407409414,-26.252608222294786,0.0005534116352570892,-0.0010082985159205811,-0.0018308358696227929,,,,
7.58,-0.005031602825489109,-0.0031356941842028917,-26.236519916329353,1.9411561029808444e-05,-0.0010266358109614529,-2.0551620274001145e-05,79930.50172307478,,,
7.59,-0.0009633266990583809,0.0005325207799997577,-26.229414088000855,-0.0011447776633985555,0.0009191177613191671,-0.0016819504661946645,,,,
7.6000000000000005,0.0016440353053134233,0.004449063230531265,-26.201982679579586,-0.0017847547535276129,0.0008038994510111648,0.0014368920835458917,79891.59346234793,33.49865674546808,-99.33764592865785,1957.3674654506622
7.61,0.0022093365570502823,-0.0007291452345570953,-26.191713915914523,0.0008425497572004505,-0.0012493818403907693,-5.955625955855591e-05,,,,
7.62,0.004841363716696853,0.002216681060811638,-26.180948430187495,-0.0028241333384620266,0.001838897964926339,0.001146725429281691,79851.98357220307,,,
7.63,-0.0026080467182802657,-0.001642562934916374,-26.17152725942378,0.0003694017031873422,-0.0013237388024107638,-0.0004989695589241504,,,,
7.640000000000001,0.003021791948192219,-0.004656420553060864,-26.158905280427742,-0.0005341551072691221,0.0015500818062078982,-0.0018356426464459182,79813.90579851759,,,
7.65,0.004494916258370114,-0.000613888473037426,-26.15074487023058,0.00016325457141246527,0.0012950689830764893,0.0006529812117609277,,,,
7.66,0.004773449529017644,0.0023697389735561594,-26.133710990576,0.0008100189269057472,-0.0004792223357776726,1.5359068195599622e-05,79776.11809931167,,,
7.67,0.0012382630071670515,0.0005438492543297373,-26.11445495253921,0.00018939199647628188,8.343612184409345e-05,0.002175748153544774,,,,
7.68,6.202932931662495e-05,0.0022034051697615237,-26.108043210749166,6.764523546430381e-05,-0.0003368850538595882,0.001320421319658408,79737.79906838799,,,
7.69,0.00021910780477033738,0.0028927571197354595,-26.098345687126947,0.0007270366069986422,0.00033518659326849,-0.0007133666520571873,,,,
7.7,-0.0003135370836175481,0.0010243102649340713,-26.08250697054801,-0.0005524634178878646,3.454058300926368e-05,0.0014157499782090533,79697.74363659733,33.49857547003841,-99.33762355800813,1974.7301317582994
