time_s,accelerometer_x,accelerometer_y,accelerometer_z,gyroscope_x,gyroscope_y,gyroscope_z,barometer_v1,gnss_x,gnss_y,gnss_z
0.0,-0.0037883247180553886,-0.0019027552756993426,-9.783753432933937,-0.0016798357055712327,-0.0026018376673421673,-0.0026631750259528885,96454.65335720745,33.49864099644529,-99.3375993124239,418.7372196605987
0.0033333333333333335,-0.0056269312419547305,0.005272228960330141,7.571880625301541,-0.0006989916707298694,0.002353975851683467,-0.0003560024849465885,,,,
0.006666666666666667,0.0036713297504658965,0.0057896547974383246,12.079066361570233,-0.00025726797479170475,0.002587506254597006,-0.00031517233367632893,,,,
0.01,-0.004909036086766329,-0.008671870656833877,16.569742806138056,-0.0020740316696316475,-0.002272702501670133,0.0017466959510288836,96454.37966327943,,,
0.013333333333333334,0.004577093594373565,0.003490007796887856,21.076572734401534,0.0016338430939289528,-0.0025314888179488668,0.001951229460014476,,,,
0.016666666666666666,-0.0042839947322621565,0.0038169070816165317,25.568306553782065,0.0003633017748291216,-0.0008917762096474819,-0.0006432654315839925,,,,
0.02,0.004757346571365377,0.0027714628079905097,30.0718916560304,0.0002872589313511661,0.001640635099777089,-0.0008991953231131616,96452.50358387145,,,
0.023333333333333334,-0.005060721473503729,-0.0003779965679339006,34.57099626118597,0.0010511200781388248,0.0007988585682235444,-0.0006758966377375338,,,,
0.02666666666666667,0.0019425061491111049,0.0035075230532090915,39.057516607469424,-0.0004736866364826178,0.000515213850271185,0.0002598436625619575,,,,
0.03,0.0027531226784077516,-0.00048631582645719285,43.558546811544616,-0.00034431073530279924,0.0027670410160946816,-0.0032676362043903766,96454.65137405926,,,
0.03333333333333333,0.001429602304510759,0.0007080845895396947,48.049314328462664,-0.0026855673747787864,-0.003884261854995411,0.00021162648092772172,,,,
0.03666666666666667,-4.049180858899809e-05,-0.0006099660482584044,52.5584194780873,-2.8591565802923412e-05,0.00257022601510572,-0.0004304321444517324,,,,
0.04,0.010257930151012949,0.006072618255928575,57.05164259555804,0.004120784004954115,-0.0002793994912372654,0.0005898909362146293,96453.39938165175,,,
0.043333333333333335,-0.004196244542810372,-0.0009361435751074839,60.89541734959013,0.0026056549747137084,-0.0032537415243991,-0.003032125689175845,,,,
0.04666666666666667,-0.0059985415669123665,0.0035078839498061238,64.74647312515656,0.0003650199157393373,0.0022483894293285375,0.0010596338640011306,,,,
0.05,-0.002918912729087607,0.0033521896126862973,68.57506674733325,-0.0008070730207917399,0.001812591049651074,0.0011379006790634555,96452.70890407404,,,
0.05333333333333334,0.00588180040538717,0.0020176892881901384,72.42218858194134,0.0006775293924526245,-0.0008084606129592525,0.0005033710222650665,,,,
0.05666666666666667,-0.0003840496925792491,-0.0046059853236602,76.24304611941544,-0.001159083360155212,0.0020374694865172094,-0.0004470129128500241,,,,
0.06,-0.012609234867822696,-0.003424236346072284,80.07804028841501,-0.0033910263302419823,0.001054024314006286,-0.00352665597309598,96453.2187459321,,,
0.06333333333333334,0.004649424164936485,0.003271931028150755,81.27227289928183,0.004176089029118353,0.002142393525665591,-0.002466175676577151,,,,
0.06666666666666667,0.001542401551432121,-0.0020325420254479246,82.39077121352835,0.00010481169760011867,-0.0011858101719155495,-0.000765012326054976,,,,
0.07,-0.011187989354265095,0.002903958417951655,83.50385478351504,0.0004029315207655849,-0.0001381697811600041,0.0019174929137570483,96454.255314135,,,
0.07333333333333333,0.004366273397794611,0.006381160910036433,84.62571964091183,-0.0009057575767830024,0.002664728905881204,-0.0019307399045388083,,,,
0.07666666666666667,-0.0050249109692005476,0.007342943698893494,85.73309881977553,-0.00023991522129336763,-0.000832789016626065,-0.0016697876442327074,,,,
0.08,0.0012128652627341643,-0.0058833388950767646,86.85535724834452,0.0003915450667323893,0.001822287922750478,-0.0016001778296320798,96452.65315031732,,,
0.08333333333333334,-0.010392725659838406,0.0012855370528983899,86.68430752555825,-0.0009003736071489093,-0.0006135019751393932,-0.0017708475617175866,,,,
0.08666666666666667,-0.0019022888514423114,0.004744308060144432,86.48028898528754,0.00047200092363841004,0.0014987365428336824,-0.001619308942246089,,,,
0.09,0.0018286844988637933,-0.004755401398406726,86.27735991201241,0.001468268266396271,0.0017053543475315635,0.0008880542595018636,96451.0559839718,,,
0.09333333333333334,0.005129031339108839,-0.006288828391268004,86.08184110482094,-0.001098427648482838,7.945307625996191e-05,-0.0013665284961747743,,,,
0.09666666666666668,0.0017853825767028618,-0.006513671473042057,85.8806360639666,0.0010152570318522033,-0.0036530074546105603,1.8027556382009477e-05,,,,
0.1,-0.0046731638275757945,-0.0030620513674024063,85.67646589634434,0.0012435104828869262,-0.00028238122709768805,-0.00047346072369517387,96451.38696150728,33.4986158164124,-99.3375850407933,421.39373743772563
0.10333333333333335,0.000268884130200821,0.0020567840197351964,85.5118745433758,-0.00015264972201613604,-0.0006067484165531348,0.00014960717717469392,,,,
0.10666666666666667,-0.0017206258725473932,0.007530290606368227,85.34018890128121,0.0019881160810656436,0.003109022476530872,0.002210277739189798,,,,
0.11,0.0023478482575154547,0.0008945381967993319,85.1818884694979,-0.0023086419678606356,0.0012040981555368304,-0.0019042348238336138,96449.43134452638,,,
0.11333333333333334,-0.00044474173505323835,0.006580153071643703,85.01656505536587,-0.001365591196952189,-0.0018265096274273458,0.00028675851402040336,,,,
0.11666666666666667,-0.002155003493908091,0.009609047685622811,84.84789754412486,0.001949089668030126,0.0011729378616562114,0.0026331787808029535,,,,
0.12,0.0030402523850377966,-0.006353483020323971,84.67960825706619,0.0002637378631087175,-0.0006933042068963453,-0.0008313363089695638,96446.77927000703,,,
0.12333333333333334,0.004977994344289474,-0.0016991263250296855,84.58130480305336,-0.0016339303853220286,0.001820503644253244,0.0017020633210626881,,,,
0.12666666666666668,-0.0011204880769776885,0.0059652486795348176,84.49703850326632,-0.0009238624286754412,-0.0008890106105059179,0.002160601578130421,,,,
0.13,0.0001249218783159667,-0.010407836966964484,84.41695537051355,0.0001854089101804677,-0.001490377963454129,-0.0014635294681280154,96447.82404393173,,,
0.13333333333333333,-0.0030930391383053556,0.007603845041717241,84.31567832139255,0.0005150875836899852,-0.0014744541675599933,2.7046152823952008e-05,,,,
0.1366666666666667,0.0019547301757311506,-0.002689961387814853,84.220184319291,0.00011192959292969356,-0.0015335657823322463,-0.0006550284829726143,,,,
0.14,8.09049710200035e-05,-0.0008636431787388082,84.13794803369865,0.0019293976203464324,-0.002095072922997662,-0.0021032638999816493,96444.66420445037,,,
0.14333333333333334,-0.003247088054548886,0.007519182362835336,84.12558692435033,-0.0005149722219643078,-0.002230747831486736,0.0024828284060635615,,,,
0.14666666666666667,0.00610068374141498,-0.0016082940338122552,84.12614227750318,0.0034507060171644873,-0.0002455786870713881,0.0020700596603824483,,,,
0.15,0.0019522505412252209,0.0070055815558793064,84.13560465334919,-0.001629603756701214,4.727140857365707e-05,0.001023409951193842,96446.09327775355,,,
0.15333333333333335,-0.007278114184682428,-0.002469318286933768,84.12873015940117,-0.0018603826503990671,0.0013779844846377764,0.0022287195658702,,,,
0.15666666666666668,-0.005487395975573393,-0.0006715822698323854,84.13835413652232,0.0007393751627469448,-0.00026035282305829257,0.0011969980660605302,,,,
0.16,-0.0024807562209114647,-0.0036332056886511175,84.13760386921255,-0.0007400149064839505,0.0018882546005068682,0.0034264608695327185,96445.0907163606,,,
0.16333333333333333,0.0022695618474854787,-0.002141557825731467,84.17380337175969,0.00032514953137878543,0.0008641541750724845,0.0010293593954558721,,,,
0.16666666666666669,-0.005769230050863794,-0.0028519883203497777,84.22440414606021,-0.002190857737595118,-0.0023814292211643702,-0.002880553304227129,,,,
0.17,0.002171629126287015,0.012813790142763288,84.2629502140103,0.0012095191732927008,0.003348377589238515,-0.00010017988755446019,96444.91001664929,,,
0.17333333333333334,-0.006288809523203109,-0.0077226121118730996,84.3000565504574,0.0006895018749430479,-0.0016704449412621304,0.001197188461430904,,,,
0.17666666666666667,0.005188011585194785,0.001968253478948823,84.34023559124944,-0.0010357573875561985,-0.0004643963660803588,-0.0006174387967824841,,,,
0.18,-0.0009503421908457012,0.00010372893604427716,84.38604132294034,-0.0025592711443530912,0.0010787887523975854,-0.000992848132403395,96441.12267006324,,,
0.18333333333333335,0.001526101957380464,0.007499502582208196,84.38055898032617,-0.0005730657225054806,0.0011867017674723696,0.0008048163784158487,,,,
0.18666666666666668,0.0019100712850794762,0.008707374621785727,84.38115664181622,-0.00023862395539901357,-0.001056529362222011,0.0019486686788884214,,,,
0.19,0.005480587597506927,0.005152962115180807,84.37178411178738,-0.0012405188098965647,-0.002405828033140321,0.0019218616267415848,96440.97388587204,,,
0.19333333333333336,-0.006705192218265455,-0.0005062004003489648,84.3630231240288,0.0016262459577485635,-0.0003575609711642952,0.002493266832697974,,,,
0.19666666666666668,-0.008367950850527927,-0.002653106615704667,84.3470087375706,0.0017692396645567973,0.0021658541299846307,-0.0018904042334794632,,,,
0.2,-0.002541109435805342,0.0020349129951945165,84.35679951552726,0.00042426312104132386,-0.0017867469233206442,0.000779554002400267,96436.85907456971,33.498651070462046,-99.33765677307278,413.5705350614818
0.20333333333333334,-0.0029565125350264907,0.005023361875452303,84.36265359907898,-0.0031903302494873643,-0.0001926894316378876,0.00011760772507616401,,,,
0.2066666666666667,0.0027321437793552533,0.006693615983786997,84.37372372072318,-0.00028635232719816003,-0.0012686922770630959,0.0008799541044937493,,,,
0.21,0.0009114879698559084,-0.0030623815210559487,84.37978321362523,0.0004671984666304283,5.8096134800465855e-05,-0.0007217248116312918,96434.98711130877,,,
0.21333333333333335,0.003476965948992437,0.008216742257999936,84.38761070287306,6.984825992110169e-05,-0.0006843178289283244,-0.0024412768430190396,,,,
0.21666666666666667,0.0009883646427765477,-0.0001789530842739553,84.40185675102835,0.0009373659023268856,-0.0008853220024983182,-0.0021339245175340605,,,,
0.22,-0.002645442198272683,-0.0072132555924393224,84.40945889589602,-0.0019631824619730552,0.0007707296827990505,-0.0019272262857260262,96432.81912260235,,,
0.22333333333333336,0.010488788011889025,0.0022278917858529475,84.43639147022395,0.00236842749044109,-0.00042907401781304075,-0.0019169984990516002,,,,
0.22666666666666668,0.0012288224928443219,0.003247604624642819,84.4379525442927,0.0008636036902724024,-0.0019019330076531116,0.0010288529636426555,,,,
0.23,0.0017213924856987921,0.005520260027227318,84.461077156424,0.0006946257541546054,-0.0008529268568682108,0.0009762999825622753,96431.90606866208,,,
0.23333333333333334,-0.009959562077506524,0.003872425267502279,84.46975436853894,0.0025479990736681805,0.002073639839778866,-0.0030381210621086637,,,,
0.2366666666666667,-0.005126877971935762,-0.012166771640129527,84.47072297014944,0.00013867212287602525,0.0036859683975821503,-0.0022225751969172603,,,,
0.24,0.004218646749624293,0.004591847975178062,84.49469075244632,0.0012112166738015321,-0.00015656879612529107,-0.00163026625678405,96429.80631529879,,,
0.24333333333333335,-0.003801101400586638,0.0005956457397732065,84.51706727937037,-0.00048789837438753975,0.0016884121858221975,0.00011400657615641489,,,,
0.24666666666666667,-0.00038313389704448185,0.0008056121980131551,84.5397907354153,-0.0014761850493541194,0.0023461513419816495,0.0003477958162665997,,,,
0.25,-0.0013896394049273107,-0.003899681983794127,84.5404304181828,-0.0003738058935501765,-0.001070305009665341,0.0005347803508251376,96428.28282453482,,,
0.25333333333333335,-0.0017530855376612822,-0.003137592636655298,84.56188296288762,0.00010646118003356432,0.0022704922996950993,0.0018859392475929352,,,,
0.2566666666666667,0.004881932327742731,-0.0003998982462548567,84.57193523212278,0.0008218810493282963,0.0005160407516546602,0.0016257892165392807,,,,
0.26,-0.0024220128155968425,-0.0059108831980983585,84.58093780024892,0.0031726330922293967,-0.0005160501798498232,0.0024662397518795684,96424.11972783052,,,
0.26333333333333336,0.00528933510581057,0.005970997646420441,84.63430216462336,0.0016187536853729135,0.0005210300116853413,0.0008667239613676518,,,,
0.26666666666666666,0.0006470635373852306,-0.001334820238734313,84.6760003817279,0.006527682588036195,-0.0005436037979068755,0.0003745800836153536,,,,
0.27,-0.0062816279512574,0.0022247292933582075,84.7240307272576,1.486174977423211e-05,-0.0009553862255629803,0.0024041083078402614,96420.58605757663,,,
0.2733333333333334,-0.0033805831791615497,0.0037109240169134823,84.78075583624948,-0.0002170294521903952,-0.0021000599995095563,0.00042224375043376275,,,,
0.27666666666666667,-0.006769223667407562,0.0012965004054345355,84.8206247694177,0.00032643336334370283,0.0025555355912261117,-0.0002827090015997152,,,,
0.28,0.0032780902499797357,-0.007218822361998995,84.8663324721458,0.005467144246633929,-0.0019406604008693291,0.003726666136936038,96417.93361799061,,,
0.2833333333333333,-0.010331819029751606,-0.00515004920544943,84.91050065622505,-0.0008439145106050447,-0.000337340310030474,-0.0019692117404879906,,,,
0.2866666666666667,-0.004428131657730725,0.004785047303555037,84.97455748082248,0.0012019373950770884,-0.0006072622375489792,0.0004536559433717754,,,,
0.29,0.005440056975757943,-0.000287331837815204,85.02522257387461,-0.0014659739886245806,0.0034663869708020678,0.00011487924219240825,96415.45434416231,,,
0.29333333333333333,0.003936976520661853,-0.006625854378906701,85.08247211160241,0.001406626046030084,0.0029628829503521763,0.0035734474212043843,,,,
0.2966666666666667,-0.000276023617794262,0.0015034167975284264,85.12174033357496,-0.002745650213503663,0.0009465176896285982,0.004894342461897838,,,,
0.3,0.004301756950947947,0.004187873194403335,85.17457791236824,0.002399347349606507,1.2086278170048769e-05,-0.00038020934792376966,96413.42823998486,33.498610146209614,-99.33759743324924,419.3995095995894
0.30333333333333334,-0.0005960794650203904,0.0010111903862897258,85.22830359906656,0.001167986262614922,-0.0008307684439743481,0.0007949171530092342,,,,
0.3066666666666667,0.010558795485147031,-0.0075012508335266645,85.28292480530894,-0.0006309013967833472,0.0009522487758534503,-0.0020573490593831806,,,,
0.31,-0.007239916062173815,-0.0012328783458874515,85.32571998364706,-0.0026565888406263056,0.0004018135504674933,0.0011902102963404916,96410.41273676351,,,
0.31333333333333335,0.005101099446160649,-0.0013452387778653205,85.37933988997858,3.698041008172257e-05,-0.0013847066542017612,-0.0023818369960514627,,,,
0.3166666666666667,-0.004165787247594771,0.0010594250682249146,85.41608314262233,-0.003966054880190419,0.0019107975641115113,0.002298096435645259,,,,
0.32,0.005065148532491302,0.0020283488383871133,85.4795297888061,0.0006929930531137038,0.00212513100600362,5.4738683521832304e-05,96406.25684712187,,,
0.32333333333333336,0.003546389013580846,-0.0017915292705319027,85.51997823192998,0.002898892193944841,-0.0005836111316066728,0.005264013166163614,,,,
0.32666666666666666,-0.0022280855679251135,-0.0029003582016974873,85.56293748990355,0.00035528659993470994,0.0019045845698017678,0.00017673568572813434,,,,
0.33,0.24759154906811587,0.1494343942386328,85.60333358399886,-0.0018718833067795974,-0.00039488201981336725,0.0008421075527825746,96404.07377830721,,,
0.33333333333333337,0.2555336888746495,0.1536781042303874,85.65894336229468,0.002966101123409892,-0.004148559917733161,0.0009209803859370201,,,,
0.33666666666666667,0.25838217793922114,0.14779475329001207,85.70076156432766,0.0020736336285815914,-0.006039461643822222,-0.0001894194701662994,,,,
0.34,0.2568245937379528,0.1520830770000962,85.7487530912024,0.00032782461930289477,-0.004222775251935685,-0.0007324560362698437,96400.95295788141,,,
0.3433333333333334,0.26755691249675173,0.15906773369731117,85.79543388903724,0.0021091403615808454,-0.004111814010844456,-0.0035705597283630726,,,,
0.3466666666666667,0.26690119160921233,0.1515881403563883,85.82779615959609,0.003528682930534284,-0.008681654125431985,0.0014697715254579035,,,,
0.35000000000000003,0.27267240022787925,0.15655338421896772,85.86286854551902,0.0038567960570698987,-0.007336140857238594,-0.0015132147531369575,96395.94754159496,,,
0.35333333333333333,0.279739851153204,0.1561935973439776,85.89874840744184,0.0027413708007835904,-0.011446333521120759,-0.0021916307476754003,,,,
0.3566666666666667,0.270220350841779,0.17482661950022588,85.9383188741961,0.003427949271883427,-0.014779490829447739,-0.0003975758807049591,,,,
0.36,0.2728680200910215,0.1612428909152121,85.97436955048556,0.0003541262852395804,-0.012760788119194495,0.00023115014344613245,96393.37036551767,,,
0.36333333333333334,0.28123454719111984,0.16487229730270853,86.01175280315472,0.0006603485719101484,-0.014241355587045468,-0.0005221680392729725,,,,
0.3666666666666667,0.27276383819924843,0.16058254722993495,86.05954682067764,0.0006850427409046305,-0.0165005675365065,0.0001254291655872943,,,,
0.37,0.2802258370090547,0.16931239665236522,86.08834753607069,0.004698702912677367,-0.017669203786587987,0.0012765584496830086,96389.57532301037,,,
0.37333333333333335,0.2788336685416411,0.1623634238301621,86.12816133990064,0.0016105026400666722,-0.01721919929870825,-0.0029252270724761027,,,,
0.3766666666666667,0.2803596515623613,0.1737872670667782,86.17920167237105,0.0065283517535581264,-0.018586926554391356,0.0013449307407239193,,,,
0.38,0.27999034959788754,0.16755992768011158,86.21352118354827,0.005520780789107198,-0.019018544682366703,0.0017641956492977565,96387.18787591145,,,
0.38333333333333336,0.2831841194099773,0.1732157760294372,86.25718192740364,0.003310464111586085,-0.024869245531391557,0.0013840759582704856,,,,
0.3866666666666667,0.2774321908176539,0.16734734385303998,86.31154066898414,0.0032561160334555264,-0.02496503837892643,-0.0018960220524758577,,,,
0.39,0.2754548870786612,0.16418488856486257,86.36310416708666,0.008330403352045867,-0.02633697761749345,0.0008049764868248659,96381.25229612064,,,
0.39333333333333337,0.2842834011726582,0.1658130886364999,86.41887333604782,0.008318289097388454,-0.030706547825097956,-0.0009732685684625701,,,,
0.39666666666666667,0.2816899388987387,0.1682085214705124,86.46552792158032,0.00467850986168168,-0.030119769527862397,-0.000809122672650703,,,,
0.4,0.2793271251580823,0.1732952298511076,86.51873495674197,0.009394372130556723,-0.028756766810578205,-0.0023484698177605417,96376.72797296973,33.49863238921297,-99.33755962435195,424.2009128887842
0.4033333333333334,0.28555183282834984,0.1756849219248428,86.62005345740093,0.005570262002452286,-0.03297874803083535,0.0013316323280584933,,,,
0.4066666666666667,0.2829620775164326,0.17111125859258852,86.7243432326776,0.006957598160726616,-0.03353374442519846,0.00019239946770635186,,,,
0.41000000000000003,0.2771168690053871,0.16227490933924013,86.84718891717026,0.006366373744935485,-0.040179369396540356,0.0015040210177855674,96375.47476438727,,,
0.4133333333333334,0.2787724484031083,0.17812553613830598,86.97298220615359,0.008234440232114582,-0.03911997896328188,0.0010816422372397366,,,,
0.4166666666666667,0.27909806095843903,0.17432085932674937,87.0725486604082,0.009315071690002483,-0.04347413194936449,-0.003272402907323427,,,,
0.42,0.2855857652892013,0.16825253307043717,87.18515281737072,0.009415383021406718,-0.04285946739217374,0.001937866196990678,96369.56679839815,,,
0.42333333333333334,0.27691170612088273,0.1806295701802134,87.25313797917141,0.009327610137273264,-0.04400295313664355,0.0025175671289939193,,,,
0.4266666666666667,0.2811659536419374,0.16856505215601672,87.27733176387495,0.008738621120586517,-0.04534263216675335,-0.000572753342456441,,,,
0.43,0.26304364265309843,0.1757275997909692,87.3283119194549,0.012030924195335385,-0.04707912620382586,0.0022231825799356336,96364.99451350121,,,
0.43333333333333335,0.27432182199082444,0.16743322277059303,87.35386248202545,0.007718825817404859,-0.04816383583722031,-0.0027922581004425763,,,,
0.4366666666666667,0.26822721085736123,0.17167979011005707,87.40333130818847,0.010990229945935697,-0.05046498291364299,-0.00024904287781758836,,,,
0.44,0.2612687444717957,0.16906759272779498,87.44939480158581,0.01098769278385251,-0.04946633388737755,-0.00011513723321193637,96360.78295641889,,,
0.44333333333333336,0.26297766755888896,0.1744942318541581,87.50136039286363,0.009345437754523607,-0.05155408999690033,0.001387710391707234,,,,
0.4466666666666667,0.2633039315058604,0.16357202686082367,87.55748050263898,0.011076743871020823,-0.0534367473442319,-0.00013708742333759578,,,,
0.45,0.26081442100936875,0.1606060311377483,87.60718803126547,0.01222316539053999,-0.05556484612801769,-0.0008053951609969372,96355.16158175132,,,
0.45333333333333337,0.2598162121624377,0.17127260375598222,87.67185379868587,0.01082822956112442,-0.058822392557514994,0.003929075779586727,,,,
0.4566666666666667,0.25483158705021214,0.17336962117728782,87.73101989725913,0.012133675990754827,-0.060706533368225166,0.000558050408172445,,,,
0.46,0.24449031975650112,0.16544857720497486,87.7877320193892,0.009217994124736152,-0.06378398107751448,0.00022536570320429958,96351.23559089944,,,
0.4633333333333334,0.2540082978558376,0.1569741102143089,87.82363716901305,0.011370299483718356,-0.06260214534004788,0.001798001133555515,,,,
0.4666666666666667,0.24176109986920072,0.16429547527130142,87.8458150752582,0.01505663542702031,-0.0642850791888136,-0.0008295031939888718,,,,
0.47000000000000003,0.24951343695337486,0.17057699101399942,87.88897685344438,0.011323433860173085,-0.0638531995617311,0.0018545194090566865,96347.05749784855,,,
0.4733333333333334,0.2426400461641839,0.16161510901090273,87.92657381627454,0.012151171530575773,-0.06983442125633088,0.0008105885267887623,,,,
0.4766666666666667,0.23276247923262577,0.15800548550154855,87.96339012385748,0.014231767258399662,-0.07107649466046799,-0.000986100445994804,,,,
0.48,0.2193426239348409,0.16256039060463268,87.99569721427285,0.01322576417627333,-0.0700127900338751,-0.001979819923215876,96342.37468823446,,,
0.48333333333333334,0.21658750303287921,0.1583556353174353,87.98145285136401,0.014401838080718701,-0.06980308978350092,0.0003456596860236967,,,,
0.4866666666666667,0.20571071202127447,0.15232052056790873,87.95909873757053,0.014558739337236955,-0.07787835045357701,0.0022456874464465673,,,,
0.49,0.20659749643003933,0.15392886919174725,87.94585435535448,0.014292534194417355,-0.07751638189853914,0.0011998587213629607,96335.18123471475,,,
0.49333333333333335,0.20031359872064985,0.1609709940314821,87.91140198215565,0.013882215043203876,-0.07645518887113309,-0.0013248849871446069,,,,
0.4966666666666667,0.18935182658494504,0.14961130177752746,87.88838981722488,0.014815358123191916,-0.08118989405125675,0.0001884700892283882,,,,
0.5,0.18807685336230467,0.14296503272533753,87.85883775655117,0.014107001837592446,-0.08398907392143415,0.0004110301800901469,96331.21076451956,33.49862107319462,-99.3376638310068,428.2353159832558
0.5033333333333334,0.19120495008897428,0.15358889250003324,87.92628815306823,0.016399831397267257,-0.08003653144100932,-9.724184371968888e-05,,,,
0.5066666666666667,0.182721927450693,0.15140441656557863,87.98879513322436,0.01421247511492822,-0.08583541023672368,-0.0001251290942788632,,,,
0.51,0.16449595481277932,0.14442499053739224,88.0748971977317,0.018351711830345507,-0.08346174789065239,0.0017710507103257318,96326.59223916315,,,
0.5133333333333334,0.1659061058207345,0.14763383857356846,88.15848127937093,0.019254227056125985,-0.08403058695539792,-0.0006789466245424759,,,,
0.5166666666666667,0.16151529406232093,0.13965486020587684,88.22660053592558,0.019182647522000575,-0.0880463796765309,0.0007754605915622108,,,,
0.52,0.14714647824844385,0.1392877144985616,88.3072864935846,0.018139151836336107,-0.09029911410390101,0.0004963547083604783,96320.56891823173,,,
0.5233333333333333,0.14663752408876776,0.1245783955290494,88.37282865201273,0.016999624930972672,-0.09026306819993143,-0.001231157802719714,,,,
0.5266666666666667,0.1296756679124916,0.13042988946180542,88.45035050562082,0.020851622550083174,-0.09360195026214482,-0.0015011690331086563,,,,
0.53,0.1247161252539945,0.1301047872804329,88.51796968300991,0.020412369217797963,-0.09471093024250428,-0.0023953315011952785,96314.73691524021,,,
0.5333333333333333,0.12223517638352885,0.1208432858776755,88.58220794994187,0.020090624996852338,-0.09783018056613124,0.0008617239722630764,,,,
0.5366666666666667,0.10703467360654498,0.1275983819798697,88.64343980252796,0.020001279996093614,-0.09968257918017681,-0.0007166543273234932,,,,
0.54,0.095074259425257,0.1172468631349223,88.72431107664752,0.016981176342417848,-0.09862500410187709,0.00018886441098427963,96308.7231258383,,,
0.5433333333333333,0.09637660480982124,0.11310427903659678,88.79413723006053,0.01997139757513282,-0.10141599185441257,-0.00039572085476587826,,,,
0.5466666666666667,0.07514303632473786,0.09848435361813412,88.87295881524543,0.01843727129478983,-0.10424981893002455,0.0004561274242802062,,,,
0.55,0.07167886243040734,0.10477499070105913,88.95718995529411,0.018857340095209445,-0.10378931393864954,0.0007408543985507845,96303.29259069765,,,
0.5533333333333333,0.0566634058746231,0.11327431803651557,89.03804403644186,0.021896885823529257,-0.10648275789618127,-0.0018707053919877735,,,,
0.5566666666666668,0.05796841575348875,0.10369122463830523,89.12264652887436,0.021015480095851205,-0.10520641008129897,-0.001404988409021567,,,,
0.56,0.04802039547705885,0.09616532938008888,89.20083089024642,0.02086471061405715,-0.11042792305186341,0.00018496658957212425,96297.1567599638,,,
0.5633333333333334,0.03234098142966,0.09782884385380482,89.28265869939911,0.019600128010000148,-0.1089724822117745,0.002122437466627138,,,,
0.5666666666666667,0.005603674652325242,0.08717917603517095,89.34463193725372,0.02055658318586076,-0.1052600534888488,-0.00026407027148986746,,,,
0.5700000000000001,-0.0030845960482832266,0.0829690768929162,89.41134783039482,0.02636473982146312,-0.11172009730311358,-0.000724099913922659,96291.25866332624,,,
0.5733333333333334,-0.00323466395697486,0.07853228538572775,89.47740056265312,0.023583007053364018,-0.1138969817146771,0.002420740512397195,,,,
0.5766666666666667,-0.005581540830171209,0.08445308557559007,89.5350846764257,0.01934482201141396,-0.1125225046813449,0.0012771156869296396,,,,
0.58,-0.031541454358793776,0.06979270644449635,89.60346774700893,0.024331748889079644,-0.11511019074564012,-0.001375351646458592,96285.68135153507,,,
0.5833333333333334,-0.04419437200703731,0.07375737358824684,89.65964520417617,0.022721316689165168,-0.11428216254284071,-0.0028207345726230654,,,,
0.5866666666666667,-0.05446357425344397,0.06397964167718445,89.7117507173275,0.02373797725256075,-0.11978522673392818,-0.0033961451142660018,,,,
0.59,-0.07103610133793702,0.050918312925156764,89.77037836362359,0.024624472794803186,-0.11930485582092129,0.001622001059775891,96279.66380667574,,,
0.5933333333333334,-0.0743027582158106,0.04578434068192505,89.82632512267925,0.024872412739616136,-0.11718666519356222,0.0002996815708983544,,,,
0.5966666666666667,-0.09010936739143828,0.048247948572997655,89.8739435899915,0.02229571748201666,-0.11678120782060601,-0.00024480290103857607,,,,
0.6,-0.10881673922356666,0.02801693424396235,89.93331588537494,0.022115618677312637,-0.12166555869697292,0.0001324310042638842,96273.3319213301,33.49861616790007,-99.3376340746554,422.6896379547039
0.6033333333333334,-0.11663467320855565,0.032201605963391264,89.9851181676566,0.02867013135524707,-0.12093703680320295,0.0003722632382338137,,,,
0.6066666666666667,-0.1301350301611296,0.030075790391115933,90.04067903672941,0.02416250151023356,-0.12183920289499177,0.00011279575334160552,,,,
0.61,-0.15404241777613012,0.0255208901016553,90.07257230473267,0.027275761085709876,-0.1260040611359585,0.0001823736313347958,96267.84898866435,,,
0.6133333333333334,-0.16297274688470026,0.0250338376514557,90.12787373410073,0.022810658650984753,-0.12606451666313337,-0.0013316718951556538,,,,
0.6166666666666667,-0.17991960615619365,0.014477392150721934,90.17377457270894,0.02273051342621168,-0.1252163979331881,0.0016490207660329623,,,,
0.62,-0.1864147985122045,0.012119304994174133,90.21475429319297,0.02348203301840858,-0.12282149020996114,0.0012230572577370611,96259.44991390727,,,
0.6233333333333334,-0.21022771578173344,0.0005739885729499161,90.2769883818604,0.02499854251913488,-0.12656457385847802,-0.0010751276087884994,,,,
0.6266666666666667,-0.22231015701136742,-0.014016668521442349,90.34537303866007,0.025395010829851457,-0.1285355638191318,-0.00042092815037025346,,,,
0.63,-0.24523049173588468,-0.006118640284872214,90.40480527104684,0.027742932235848963,-0.12665771747937724,0.0013652288681679405,96254.07908515669,,,
0.6333333333333334,-0.24940590412883745,-0.018243700950064775,90.46910732110418,0.02516399408084308,-0.12508538084938098,-0.0003342660889683588,,,,
0.6366666666666667,-0.2618287211654923,-0.02546309364616068,90.53365775829515,0.02499081249710452,-0.12564395598258252,-0.0008638339985998977,,,,
0.64,-0.2810094076197699,-0.022440841868514992,90.5906045409286,0.02464382803002191,-0.12715318012403887,-0.0027301146976538046,96246.28310763824,,,
0.6433333333333334,-0.290279309227341,-0.0394470886603503,90.68329123617792,0.023612086254081212,-0.1318364758939499,-0.002567656861100166,,,,
0.6466666666666667,-0.3127356118622587,-0.03817515510375116,90.76555719017577,0.024799382764174108,-0.12823186126881803,-0.0011581205510848482,,,,
0.65,-0.32801769114112694,-0.03783819556709967,90.83457097581548,0.024938756597001187,-0.13072202232568064,0.001992077654206359,96239.74461418444,,,
0.6533333333333333,-0.3490213279646271,-0.05943271474978763,90.93772537463927,0.025320621998430923,-0.13000759998055736,-0.003221948579136432,,,,
0.6566666666666667,-0.372922306198257,-0.055844724392455775,91.01341625642517,0.026950194115005682,-0.1336406925760475,-0.0004758608758920889,,,,
0.66,-0.3827038638410021,-0.07432370776801848,91.10033680036234,0.0282666239387852,-0.13114822994176814,-0.0007858559142549285,96233.31671990795,,,
0.6633333333333333,-0.400197479657197,-0.08052674159892315,91.2066861898252,0.02491831538453348,-0.13253502806646508,-0.00046770952526541115,,,,
0.6666666666666667,-0.412783429689173,-0.07349022212650495,91.3020560649301,0.02559570867523854,-0.13060677175108598,-0.0009374012337655551,,,,
0.67,-0.43542557718252206,-0.08781905060797338,91.39408926755033,0.024729464685898303,-0.13328393707729774,-0.0010409824045708273,96226.74005162013,,,
0.6733333333333333,-0.451622464459713,-0.09251178698401306,91.49298140830922,0.026023122355863574,-0.13212281966966874,0.0021732291542466585,,,,
0.6766666666666667,-0.47315785683883727,-0.1062272211681372,91.58728158177802,0.024141079414458068,-0.13068833204630154,-0.00023996687588278705,,,,
0.68,-0.48856256441849105,-0.10826286016718549,91.6926139201611,0.025800308695814154,-0.13164161699501964,-0.0034169639246610824,96217.8055974999,,,
0.6833333333333333,-0.5120723545137166,-0.11654512221184768,91.80292339410482,0.022213912413046648,-0.13351194843313074,-0.0007127055755059604,,,,
0.6866666666666668,-0.5334295876620889,-0.13272201471329068,91.90407641690116,0.02603439882638588,-0.13036236690834577,0.0012230093546097979,,,,
0.6900000000000001,-0.5425831079614639,-0.1361457242998327,92.0227854897586,0.02375903594507008,-0.1305260236371815,-0.0011843725156998979,96211.13855555793,,,
0.6933333333333334,-0.563113122211,-0.14153860250844824,92.13374809813472,0.02787718371653502,-0.13274221974567574,0.0006788213591859281,,,,
0.6966666666666667,-0.5788713646595317,-0.14476047088601127,92.2590103701774,0.024957133537375494,-0.12853258131617637,0.0006772347454556282,,,,
0.7000000000000001,-0.6045669670343176,-0.15443869313697717,92.35801587093574,0.02350419267156649,-0.12865423081578836,-0.00024087310341647103,96203.85511305803,33.49862208464568,-99.33759736563961,436.6833452475339
0.7033333333333334,-0.6071096093894449,-0.16933925546303671,92.47681562016888,0.020424807194189033,-0.12964167483316066,0.0027983264405591103,,,,
0.7066666666666667,-0.6330510910644594,-0.18250492501750565,92.6022259247513,0.026297441380223247,-0.13135509920202001,-0.0008890014238635178,,,,
0.71,-0.6497669590539387,-0.16824415832235215,92.72802745364952,0.024440707945280755,-0.12776406624397843,-0.0003840414648698249,96196.43218294808,,,
0.7133333333333334,-0.672476819480651,-0.18409962556584963,92.84771428303878,0.025210954824191625,-0.1260401753773271,0.0012189542952707197,,,,
0.7166666666666667,-0.6922214397192519,-0.18910799967769945,92.97314989910645,0.020755826468160595,-0.12661999550246164,-0.0020018150547549607,,,,
0.72,-0.7050653268104013,-0.21139037873699013,93.09378545222246,0.021855792787646468,-0.12213171804438824,0.0003381212317484109,96187.8890571058,,,
0.7233333333333334,-0.7336668274295589,-0.20750881154567308,93.23133407011186,0.02492102229923913,-0.12298543852792546,-0.0006867041014480102,,,,
0.7266666666666667,-0.75065398255096,-0.21743582571361972,93.36454924196588,0.02319939868784359,-0.12476138746435397,0.0019803605821501597,,,,
0.73,-0.7657842421961313,-0.22711185717736448,93.49860626751986,0.023995370015311674,-0.1227638152753133,0.00039363816214344074,96181.78867121479,,,
0.7333333333333334,-0.7779832789507144,-0.23108501860603148,93.62277681187477,0.024431123483459764,-0.12543645011042076,0.000628232908405492,,,,
0.7366666666666667,-0.7987118714010797,-0.23497132117105962,93.76149300905094,0.023966263698100714,-0.12156959119728973,-0.00214624309148545,,,,
0.74,-0.82974744266731,-0.24979114617568293,93.886079878677,0.021955100108050414,-0.12190926391105264,0.0009834919498646856,96172.64957512326,,,
0.7433333333333334,-0.8443143637607224,-0.2544091978486488,94.03256943436202,0.022296283532321964,-0.12007054438725732,0.002325262762633887,,,,
0.7466666666666667,-0.8547744474279357,-0.26088770140105466,94.16532112219019,0.020128551713928362,-0.11935879231128917,-0.0021926221617051584,,,,
0.75,-0.8786077109296465,-0.2775242224012593,94.29802099105069,0.020115092637335477,-0.11889942992544979,-0.0010924495371440763,96165.42587842842,,,
0.7533333333333334,-0.9002686915438255,-0.27799334420123095,94.4456267110218,0.019266213234283017,-0.1142932878372118,-0.0005193612701879143,,,,
0.7566666666666667,-0.9092841816899532,-0.2888480098450941,94.57697194622583,0.018787648997192354,-0.11439081257757606,0.0005893864132945541,,,,
0.76,-0.9363718575146202,-0.2936116990828097,94.7231647424236,0.016462314740470278,-0.11253767013902805,-0.0011048431082142864,96157.00630880757,,,
0.7633333333333334,-0.9511326584316349,-0.29741649725648517,94.85781730652057,0.019491095503596675,-0.11216780329170928,-0.002731189063433037,,,,
0.7666666666666667,-0.9642274349324892,-0.3095867805973466,95.00582875937148,0.016409977780295442,-0.10940227772845253,0.00100935352072913,,,,
0.77,-0.9906099740602498,-0.31936321858274513,95.14178957171366,0.020081759029498096,-0.10646609804698608,-0.00044893499205990505,96147.82082623473,,,
0.7733333333333334,-0.9976990394067927,-0.33043219825833337,95.27338100361,0.02091258733544211,-0.10555112730567603,0.003226562657200338,,,,
0.7766666666666667,-1.018894439264567,-0.3283789080808899,95.40252085345963,0.01921038282819151,-0.10350225124084166,-0.0015024532734412225,,,,
0.78,-1.0353079839330528,-0.3450945836605931,95.56295332603315,0.021624876448274908,-0.09920298675583568,-0.003052981630431448,96138.93504817372,,,
0.7833333333333334,-1.0547648329833124,-0.3433573903559578,95.67648124584298,0.02224629582065807,-0.10086233564450814,0.0009523801709110616,,,,
0.7866666666666667,-1.0781515039273941,-0.354007078403188,95.82853285838023,0.01711526613589499,-0.09964641532533297,-0.0013388249546293616,,,,
0.79,-1.085050101176614,-0.3582246144133157,95.95681926239689,0.01800232845922471,-0.09873367047859428,0.002950307270192365,96131.71468320128,,,
0.7933333333333333,-1.0986168341803062,-0.3682666779200684,96.08148908584886,0.016094700116316984,-0.09401171500706099,0.0013860983177561507,,,,
0.7966666666666667,-1.1252047741795215,-0.377611752618801,96.20430214481625,0.015968332192057733,-0.09021385916599192,0.00010273708709572645,,,,
0.8,-1.1429703654553336,-0.3786885629387044,96.33516153479188,0.01643029704449426,-0.09081183131052303,-0.00082707499739258,96122.41936587445,33.49860846377636,-99.33761407415936,437.98564722111047
0.8033333333333333,-1.152652123248851,-0.38872003756497375,96.4561689622728,0.015753139889040924,-0.09146341705751176,0.0015727118047245468,,,,
0.8066666666666668,-1.1667748830385407,-0.38998495461490834,96.5743592137445,0.01627263670186418,-0.08872528998343084,-0.0004279302596515913,,,,
0.81,-1.1775150338390825,-0.4112132355950802,96.6932671871556,0.013123690131360492,-0.08596439781941542,0.00030801784324616447,96112.74655063218,,,
0.8133333333333334,-1.2053775213146787,-0.4020183216115851,96.80161992716245,0.015089335135257976,-0.08040405753939035,-0.0032773527045982555,,,,
0.8166666666666668,-1.215245362726744,-0.41581837349369255,96.92571535671438,0.01683942116916018,-0.07969207918189063,-0.0005526464734600646,,,,
0.8200000000000001,-1.226562132351761,-0.4112166029373038,97.04615134353091,0.013566231587134417,-0.07923890943994473,0.0016072103244435336,96104.85514920416,,,
0.8233333333333334,-1.2448168758340354,-0.42530807415759114,97.1237829781435,0.013112856238054466,-0.07680150676913859,0.0010385268894292142,,,,
0.8266666666666668,-1.265103659308428,-0.4254390419180592,97.23135725057058,0.013313749006323946,-0.07316044175848381,-0.0007855239618427139,,,,
0.8300000000000001,-1.2706939364875705,-0.4227802316087739,97.32412148117703,0.00881585833632497,-0.06961323410651926,-0.003758204271350811,96097.02298715033,,,
0.8333333333333334,-1.2801844065659234,-0.43342483682616595,97.41779352917077,0.012020418229283968,-0.07053705562865925,-0.0024288785088134104,,,,
0.8366666666666667,-1.3015487710820661,-0.4435158490491623,97.5233704045462,0.008301443450045163,-0.06731152539924812,0.0023662325958583113,,,,
0.84,-1.3066668405194384,-0.44212599003192415,97.61936726987544,0.009518101667772515,-0.06328034732500498,0.0026868939274018347,96086.96706179394,,,
0.8433333333333334,-1.3051255160772042,-0.45280642460724746,97.69944491309232,0.010733321837252178,-0.0619782693175666,0.00020807317296796794,,,,
0.8466666666666667,-1.3273130583664596,-0.4572872320387992,97.7866874669087,0.010552905793975439,-0.05661211213077171,0.0002806027445779576,,,,
0.85,-1.33925984215298,-0.4636359764996117,97.86855416199792,0.008129713748831048,-0.05734259113326901,-0.0025553290008424514,96077.59207219591,,,
0.8533333333333334,-1.3520645609024367,-0.46811155388842746,97.95865742251215,0.005976475468161968,-0.05435549930543304,0.0012601331320499772,,,,
0.8566666666666667,-1.3562396080498516,-0.47695560692797156,98.03367497976119,0.006044445584513837,-0.05039401004240664,-0.00042468548785404075,,,,
0.86,-1.3659402782877905,-0.46577972043574867,98.10469811694153,0.007343942555751328,-0.051193700649679534,-0.002018997981794564,96069.33229405864,,,
0.8633333333333334,-1.3731194876405566,-0.46789064573336614,98.18738765174011,0.004699833574104432,-0.044318908456282634,0.0016439393175894563,,,,
0.8666666666666667,-1.380742742631024,-0.4754480525485429,98.25698970956516,0.006218207653195841,-0.04393827505722823,0.00022969412236756371,,,,
0.87,-1.398800571753331,-0.4783619877090612,98.32980898876376,0.004974845739728848,-0.038918255399324336,-0.0011921544207602617,96060.43633898797,,,
0.8733333333333334,-1.3934046050481115,-0.4813927149033125,98.40594278771187,0.006963718450180446,-0.03684236919990888,0.0003446106127285059,,,,
0.8766666666666667,-1.404888761090048,-0.47552144883135605,98.48594977858768,0.001974428914497502,-0.03257196246325162,-0.0019153664981219724,,,,
0.88,-1.40709659884269,-0.4779809977246233,98.54877436020305,0.004312035092488387,-0.03182854020656731,-0.001806129993477927,96049.21202704194,,,
0.8833333333333334,-1.4158754156857836,-0.49559145239346253,98.62597235155566,0.0013281325312288217,-0.02809669390516864,-0.0020001237144008435,,,,
0.8866666666666667,-1.4290623240117497,-0.49099776211175844,98.7003190907725,0.002549274392347869,-0.025808335494259767,-0.0019442688842928526,,,,
0.89,-1.4200012206857215,-0.4781735384930805,98.77619919108729,0.0023078059389370345,-0.022898252245593175,-9.510171563012616e-05,96038.36269255134,,,
0.8933333333333334,-1.4296562355531135,-0.48616791694794737,98.84628233095044,0.0016473226642849128,-0.01929661227761212,-0.0017414178553125715,,,,
0.8966666666666667,-1.4280765343827375,-0.4857629011242781,98.92232067185283,0.00038279815497572003,-0.017617030642099917,0.0012746268316096677,,,,
0.9,-1.4349771231545583,-0.49136722215734857,98.98986769465677,0.001907059567508678,-0.014121989376468276,-0.0009630182970242587,96028.66993666856,33.49862992531207,-99.33761785277375,456.31724877379116
0.9033333333333334,-1.4299594155225896,-0.48784940883908684,99.0575135550329,8.235366562586705e-05,-0.014013895256974695,-0.0019589694174204893,,,,
0.9066666666666667,-1.4286189432331138,-0.4836041453712748,99.1393291321238,-0.0018380742307251806,-0.009291907783821801,0.0015048134712553668,,,,
0.91,-1.4349481318829431,-0.4903992997804084,99.2193327645673,-0.004053043107335997,-0.008832348923529021,0.001242779251805551,96017.76613116851,,,
0.9133333333333334,-1.4385239211512504,-0.4703038250892349,99.29549213099527,0.0010047144404075755,-0.0038965716162317615,-0.0025053960657649412,,,,
0.9166666666666667,-1.432651688646446,-0.4780382164590486,99.36980919639451,-0.0013182148489927369,-0.0005138383031561286,-0.0030871792965703766,,,,
0.92,-1.4374555518361591,-0.4668990268222809,99.45995370141077,-0.0036368895066973407,0.004162892405226905,0.0012313154174547671,96010.23546907942,,,
0.9233333333333333,-1.4315672189190585,-0.4804727214594233,99.52830802915382,-0.0027992950502546757,0.005794493628417921,-0.002451490901193504,,,,
0.9266666666666667,-1.4285484540063025,-0.4749592157958405,99.59330036927027,-0.00283545413946965,0.006639503772783443,-0.000660726927862156,,,,
0.93,-1.426522439636594,-0.4763538943669763,99.67041162181344,-0.00399385346702195,0.007242911916838804,-0.0027253708579251554,95998.35851387367,,,
0.9333333333333333,-1.418553188133654,-0.46552287041467266,99.74817051094351,-0.004117412947960353,0.013906545333425953,-0.0020032623539044314,,,,
0.9366666666666668,-1.4219654117175198,-0.45661811830085136,99.81849947847184,-0.006024074929403106,0.011355535439991432,0.0017466170315318815,,,,
0.9400000000000001,-1.4175946686276144,-0.4608453876288667,99.88105466007194,-0.004340553910436014,0.0174838475768006,-0.00012660173821978066,95987.87078301278,,,
0.9433333333333334,-1.3969602872237903,-0.46023487319695977,99.94684170355501,-0.006752233267378993,0.023716187928144686,0.0021583173580280446,,,,
0.9466666666666668,-1.4005290531427053,-0.4448195484680117,100.00606404028076,-0.007343059742805114,0.020613125660783115,-0.00011672877445022666,,,,
0.9500000000000001,-1.388571153299132,-0.43827165269648444,100.07788550519926,-0.007072752954067192,0.026129539718050505,0.0028172009613191096,95978.43028810258,,,
0.9533333333333334,-1.3792516356741231,-0.4506271542303912,100.13757924553799,-0.005939836684297116,0.026801165866154195,-0.001631946015589816,,,,
0.9566666666666668,-1.3757097195856784,-0.4344202450446448,100.18989235571016,-0.008667877339693273,0.026735110818656524,-0.00032409242241081477,,,,
0.96,-1.35906466033481,-0.43860853748941125,100.2458880617776,-0.009168342520210553,0.03127176592482005,-0.0013727736954972172,95965.85603980653,,,
0.9633333333333334,-1.3432398779504047,-0.4233740610343613,100.30220664870814,-0.009578094044270735,0.03689012649517512,-0.0037574119498018366,,,,
0.9666666666666667,-1.3372118206049322,-0.40924491701451016,100.34671833491673,-0.008564635987006238,0.035508646982921936,0.00250886934420749,,,,
0.97,-1.321293592936439,-0.4106028808065458,100.3915074290108,-0.009921684013979139,0.03899833786306306,0.001100227038101332,95956.85561850082,,,
0.9733333333333334,-1.3263996803985905,-0.40536816599506675,100.44747832763291,-0.010321432150046966,0.041617269737730896,0.000557267981198299,,,,
0.9766666666666667,-1.3080830229053841,-0.39398567427991543,100.48735958693904,-0.011877080359571862,0.04276879592906896,0.0013269166802974803,,,,
0.98,-1.2883216421023662,-0.38989414275925016,100.54343725444589,-0.010749032955635916,0.04313471640993393,0.00027210390078920364,95946.81240935813,,,
0.9833333333333334,-1.2798899826008263,-0.3875784623174912,100.55986889981136,-0.011776070332857567,0.0456033076851451,0.0015123737559968953,,,,
0.9866666666666667,-1.2696340369723516,-0.3633727711710089,100.59012394043044,-0.011253644895326535,0.047372804275084036,-0.0013681009451751234,,,,
0.99,-1.2483382876257558,-0.3639202563691037,100.60671190151861,-0.01337310982121914,0.05427284175253994,-0.00016791811209889058,95934.17659974491,,,
0.9933333333333334,-1.2385525461128037,-0.3534833462424337,100.64138529602704,-0.015225441543359202,0.05139142773691398,-0.0011337693682316903,,,,
0.9966666666666667,-1.222783357734687,-0.3469872203388674,100.67122480382275,-0.015406253189998678,0.05334870936391772,0.00043140900018927275,,,,
1.0,-1.2034235630827042,-0.3393840860419913,100.69302146081301,-0.01445956139223346,0.05597810991121845,0.0019284042842898413,95922.1032445037,33.49857525097628,-99.33760625573841,461.93325634426736
1.0033333333333334,-1.1652630086295919,-0.3277855080510828,100.70768074014188,-0.015445663036215805,0.05820739216662204,0.002517498259414953,,,,
1.0066666666666668,-1.1684978788581386,-0.31876294215575823,100.72523991735206,-0.014586669555410072,0.05810919191295188,0.00046862713700799723,,,,
1.01,-1.1603290736894911,-0.3017500666686642,100.74373663351835,-0.012919836442261821,0.0628451492264034,-0.0023927947429385242,95911.32879939575,,,
1.0133333333333334,-1.130713029256249,-0.30526412021967675,100.75862942333349,-0.01441812348893312,0.06304920985565654,-0.003021708151684327,,,,
1.0166666666666668,-1.1091708122167028,-0.2818242335366742,100.77365250011164,-0.013253698862230628,0.06343250337641781,0.003777926311714324,,,,
1.02,-1.0925478548059877,-0.2855306475088809,100.78054277360447,-0.015274530558312148,0.061361490902731,0.00017651789983871247,95898.35469434697,,,
1.0233333333333334,-1.075645028679287,-0.26727422909878384,100.80081443304356,-0.014360906215769811,0.06175544830269965,0.0028878101390302367,,,,
1.0266666666666668,-1.0539461143119482,-0.26253366549771645,100.82837976634866,-0.01838352812381069,0.06293328224358131,0.0011907324998550717,,,,
1.03,-1.0355288695021874,-0.24292561713612834,100.84455966326934,-0.01631391884991731,0.06458719299536299,0.0002760459741513709,95889.19272769497,,,
1.0333333333333334,-1.0036534166051168,-0.23967756314386748,100.85369244469162,-0.014262879206104391,0.06742242322023724,0.0003406032175260477,,,,
1.0366666666666666,-0.9873914819878136,-0.22918717392870555,100.86596165730786,-0.014539743406713351,0.06291386408138497,0.00124850132749353,,,,
1.04,-0.959598842376547,-0.2167211850049977,100.88091937674868,-0.016833153320427778,0.06639825591143442,-0.0017084296189347,95876.61280648145,,,
1.0433333333333334,-0.9325682625147378,-0.20433016868829246,100.89679874786263,-0.01362467905816846,0.06804407395247673,0.0013469352077300526,,,,
1.0466666666666666,-0.9251050433658492,-0.18757937866647684,100.9247969048903,-0.01432955865209971,0.07014499548712118,0.0014658714367809438,,,,
1.05,-0.9103426218040332,-0.16998080247905845,100.94775889295585,-0.01745750418201704,0.0678069952660807,0.000382775885856055,95863.22001736912,,,
1.0533333333333335,-0.8767160780326729,-0.16064864372698434,100.96982665075078,-0.018262395938981192,0.06868843074572818,0.00023728457907537434,,,,
1.0566666666666666,-0.8500480234630707,-0.14434332400820962,100.98847489384862,-0.01585338419390776,0.07093338228840457,0.0012381581663483763,,,,
1.06,-0.8285837074296986,-0.14421556168435956,101.01681058109588,-0.014323110185171116,0.07164976799340171,-4.0687067022872914e-05,95850.55928623397,,,
1.0633333333333335,-0.8115277727198293,-0.1238236214566899,101.04273611335634,-0.017636739384115,0.06996978001845194,-0.00022579935842865012,,,,
1.0666666666666667,-0.7937697794939639,-0.11605408184802028,101.08050924394492,-0.014907960492462817,0.06626993100542539,0.001674150362465509,,,,
1.07,-0.767813179015342,-0.10248025030746995,101.12823065834104,-0.015525087280742724,0.06984478292079745,-0.0015456360762779392,95841.5541086942,,,
1.0733333333333335,-0.7476599134261699,-0.08383793231555693,101.1538291604708,-0.01567536676936165,0.06860531771643634,-0.000990231693189478,,,,
1.0766666666666667,-0.7206049743160972,-0.08775018062296425,101.18350238928335,-0.017308959402186998,0.06439622274284945,0.001942668355019379,,,,
1.08,-0.7012235293556642,-0.07000685546735481,101.22229597140229,-0.015622893286296938,0.06989516999429755,-0.0030218626772318996,95829.41073927213,,,
1.0833333333333335,-0.6726169727808284,-0.057898300608642456,101.26325141672102,-0.010545380847811453,0.06604345308753942,0.00022378223476440272,,,,
1.0866666666666667,-0.6568983538002234,-0.03772057723777425,101.30199410615917,-0.014219649154307814,0.0649498996267471,-0.002739848283199071,,,,
1.09,-0.6337150210393935,-0.03815021056635347,101.34530601801318,-0.01307440886395994,0.06427536675999924,-0.003242221239923918,95817.2966063612,,,
1.0933333333333335,-0.6073566256603641,-0.01712814256958406,101.38738835762977,-0.01340127365302457,0.06639395334273272,-0.0010290346873197767,,,,
1.0966666666666667,-0.5893203158836807,-0.018632606587490528,101.42473204334961,-0.012021505270431361,0.06689674088326389,0.0008800310441710635,,,,
1.1,-0.5706666643407995,-0.012374237500588178,101.46432238382062,-0.01385336691619622,0.06400671362690047,-0.001663894731124182,95803.66600148095,33.498636384627126,-99.33759080972433,472.2175927354942
1.1033333333333335,-0.5408244320649525,0.018307788099625917,101.50675067995107,-0.016603057162000282,0.061903993003048684,-0.0027779468887305686,,,,
1.1066666666666667,-0.5228311461350537,0.008045409582587941,101.53519876352001,-0.012059838803140658,0.05732460288943169,0.0007507317842707182,,,,
1.11,-0.5003167526570794,0.023612565748296534,101.57484594183195,-0.012421608703361817,0.056745487470414156,0.001394260148344351,95792.82537501318,,,
1.1133333333333335,-0.4928526710485855,0.043699565115968814,101.60600040602088,-0.01249985640337059,0.05359736921361652,0.0015184469145249266,,,,
1.1166666666666667,-0.46406163813543977,0.034395205062871186,101.64563494269503,-0.013016608954402811,0.05186718664141235,-0.002593257412710718,,,,
1.12,-0.4494012440106877,0.05977216293087818,101.67957135785925,-0.008529433038893924,0.05533751310136446,-0.0008427529703331252,95779.48366167434,,,
1.1233333333333333,-0.42548046738442225,0.06295326378660092,101.70179364529474,-0.009346633529273755,0.050091771280467344,0.0027782185004980513,,,,
1.1266666666666667,-0.4079255682124704,0.07331427149354297,101.7320239821995,-0.010547469185177023,0.05030999254645433,-0.0019491606698072497,,,,
1.1300000000000001,-0.389018191030408,0.07883165462027693,101.76725407296317,-0.010423082120144532,0.05130736323260886,-0.0025714743779898606,95765.82864466071,,,
1.1333333333333333,-0.37057065785171645,0.09240896405941051,101.78366954310128,-0.012243871264186905,0.04277937726728276,0.002121487761851583,,,,
1.1366666666666667,-0.3506684974369841,0.09915165705046844,101.81194343340375,-0.012950133849267687,0.04167549117299538,-0.0004693098610270353,,,,
1.1400000000000001,-0.33838363760551177,0.09907664791008726,101.84576110546861,-0.008697996455926671,0.04259016952505046,0.0017722408306363939,95753.19541361323,,,
1.1433333333333333,-0.3171029757594114,0.12034640889012821,101.88291666707427,-0.008224254514943984,0.04024420801904263,-0.004529927266751903,,,,
1.1466666666666667,-0.30958289141796375,0.12982620498420566,101.89187779076835,-0.009789423791076298,0.03655505162846297,-0.0007645758147010206,,,,
1.1500000000000001,-0.2814825667643479,0.12302880852525146,101.92519589337493,-0.008566097875954259,0.037276251850355664,0.0024211746336460804,95739.6263348103,,,
1.1533333333333333,-0.27128952212796653,0.131551745714244,101.9473494453406,-0.0070872357474340945,0.03313859365970083,-0.0004480593766379385,,,,
1.1566666666666667,-0.2607645304573582,0.12247782379683578,101.9679486142876,-0.008009493872064464,0.030502920913109473,-0.0014938109264772733,,,,
1.16,-0.2543425463131146,0.149084921681376,101.99837713946181,-0.004621567737814775,0.025718950891763456,-0.0004436227925118229,95726.85248568768,,,
1.1633333333333333,-0.2506566676288073,0.14298595027727778,102.02327422814011,-0.003968489885674912,0.0250607899285071,-0.0007017691681053081,,,,
1.1666666666666667,-0.2340070864149338,0.15014470271915822,102.04473707257598,-0.0037898690495370793,0.023872771383162766,7.298777221861041e-05,,,,
1.17,-0.22072502707990102,0.15976465803523454,102.07525499671866,-0.006852209681685053,0.025135613477927657,-0.0009848771417511996,95712.80564816938,,,
1.1733333333333333,-0.21559283109249108,0.16290789702210512,102.09437498916456,-0.005310608246562719,0.016805076951585063,0.0006960956894523741,,,,
1.1766666666666667,-0.20259020215208237,0.16837632226473742,102.13357260476774,-0.005218429096034712,0.018258971004055515,0.00033293944601674186,,,,
1.18,-0.20890459962307742,0.16717393973254563,102.15367889634781,-0.0033927744101593894,0.014496094648959328,4.563788409397943e-05,95699.18622885921,,,
1.1833333333333333,-0.1877681842416739,0.16280526250599475,102.17562686466363,-0.005916335197464138,0.010457048683501753,0.001264533915530838,,,,
1.1866666666666668,-0.19256784953224163,0.16322349401918015,102.20186131425024,-0.0036355991023521573,0.00933521456469738,-0.0009215281166386247,,,,
1.19,-0.1953500567651645,0.16314063550287813,102.24208895669636,-0.0008866473851214731,0.006121249750142588,0.0014291002133979577,95686.5478640653,,,
1.1933333333333334,-0.184034862593432,0.18056003170886498,102.25886319592189,-0.00022993897275785545,0.0026614873218334155,0.001480816456225518,,,,
1.1966666666666668,-0.1652189180332991,0.1629011324130251,102.28756096942614,-0.00020346434905834092,-0.0019830874215746616,0.0016309202039632214,,,,
1.2,-0.17431870957330356,0.17513559512071575,102.31463329671041,-0.003042729406707047,-0.0020994897861681392,-0.003457080962982093,95673.57123130292,33.498633468435116,-99.33759281281147,478.785240507058
1.2033333333333334,-0.18335136369378457,0.16649871218710696,102.33989675312495,0.0014578462645518273,-0.005006887151192963,0.0009480258190943554,,,,
1.2066666666666668,-0.17086476969716474,0.1662621815480289,102.37163046269994,0.0018858685100964876,-0.007224372707591867,0.002560948047238591,,,,
1.21,-0.17590626896535558,0.17412970870956157,102.40313653182122,0.0014033736440970846,-0.009891172781977573,0.00023971552188932225,95658.46293160786,,,
1.2133333333333334,-0.18755662939846493,0.16606901527652934,102.43183054429245,0.0017389036344624045,-0.008081624735320859,-0.00177213109976859,,,,
1.2166666666666668,-0.1789843489746576,0.15919492675219646,102.46490817003466,0.0049952373832673255,-0.01717957651106588,-0.000497157632487626,,,,
1.22,-0.18999768513824425,0.1572653529390193,102.49616114634944,0.0024112198110807508,-0.019381946897813494,0.0013348791267121655,95645.03106975922,,,
1.2233333333333334,-0.1959372288364635,0.15026603819212955,102.51391835993005,0.002328118544401732,-0.01993501716859595,0.000875646197216398,,,,
1.2266666666666668,-0.20754986934264022,0.1509592831444862,102.54536964430183,0.0004868965790804855,-0.021429812535720433,3.993385682133357e-05,,,,
1.23,-0.21331217288629054,0.14560413829985427,102.57717009756215,0.004155420623567124,-0.023955349590251467,0.0018269021215227541,95631.11338422056,,,
1.2333333333333334,-0.2296539255114576,0.14818136806494814,102.59278747000553,0.0013618289161283037,-0.02803261685000944,-0.00033723163572398844,,,,
1.2366666666666668,-0.2365609631509386,0.13754382715706412,102.62770377736373,0.0027079190845296945,-0.02965412691251847,0.0008635674608015861,,,,
1.24,-0.24216061130843117,0.11986885730708552,102.65358462294809,0.0033939807626700937,-0.028556958915848012,-0.0003421918749621909,95617.66515790652,,,
1.2433333333333334,-0.25089495498359515,0.10573667346355044,102.6695418510571,0.0032507289060616333,-0.03493571325432548,-0.002081088318393735,,,,
1.2466666666666668,-0.2631104676810333,0.11659560706468318,102.67555026772104,0.006779701284397713,-0.036873311631837206,0.00013850761815363479,,,,
1.25,-0.2795143878178958,0.10691734556797043,102.70430105940174,0.008498726130594826,-0.040280892400298286,-0.0033535033336712324,95603.62700682654,,,
1.2533333333333334,-0.2905540532976059,0.09387300729579853,102.72393769890047,0.005364203314555209,-0.041936641637502534,-0.0005374895336123189,,,,
1.2566666666666668,-0.30009383565499903,0.08070161076133352,102.75682606855925,0.004209493914576158,-0.04274142347254724,-0.0004681719168441104,,,,
1.26,-0.31527662979166304,0.08120969289402984,102.7628312034358,0.006113028301042736,-0.041877642194928,-0.00022855701402255433,95588.48515296528,,,
1.2633333333333334,-0.3331334484836407,0.07262833683669218,102.77914372271668,0.0059340801289792435,-0.04608886522176056,0.0010446251820472386,,,,
1.2666666666666668,-0.35520898502350606,0.06453601224449045,102.8015721864448,0.008694102621304416,-0.048261433674343525,0.0012957998900374693,,,,
1.27,-0.3681291851936517,0.04435712431136595,102.81155658245737,0.006961466508357715,-0.05237412990836921,0.0014137504503158231,95573.52080078956,,,
1.2733333333333334,-0.39062329544328217,0.03821378430974341,102.83031973589621,0.008217208250288774,-0.0474652179000778,0.00019670998608973143,,,,
1.2766666666666668,-0.40842043901320446,0.03148714611736556,102.8371312311732,0.010764525061833003,-0.052585043185626554,-0.002800631892349025,,,,
1.28,-0.429305759355611,0.01248991186279889,102.85074047736269,0.008418275900584159,-0.05183254528546402,0.00012581382045661506,95560.28549023937,,,
1.2833333333333334,-0.4523422301462379,0.009753023148016265,102.87557310805992,0.005402876250336964,-0.04979078589440866,-0.00023060525179668137,,,,
1.2866666666666668,-0.47053805671671867,-0.0063348843775062206,102.8978367370611,0.010161566725395931,-0.053959205304832246,0.0029772359271030267,,,,
1.29,-0.49023797324703455,-0.01997119959159143,102.91802685643547,0.008529978305316894,-0.05458534535883412,0.0005494507316888454,95541.22397353055,,,
1.2933333333333334,-0.5201222779149451,-0.023146170646654602,102.93727204465483,0.012534043306509693,-0.05740791380325876,-0.0017083391238556182,,,,
1.2966666666666669,-0.5423448702323945,-0.04538596036166992,102.9470685439322,0.008140704595256216,-0.05676953043473021,-0.0034044283737134427,,,,
1.3,-0.5655198778138975,-0.048668130536101584,102.96541037042817,0.009739907452463968,-0.05331442460205736,-0.0015695710586671751,95528.74927389782,33.49865837398375,-99.33760107046872,497.7939064071231
1.3033333333333335,-0.5762671126253852,-0.06698019225114057,102.98471760783534,0.012959202887765543,-0.057634589858473737,-0.0015920433050284407,,,,
1.3066666666666666,-0.6066514746031499,-0.08528304890945575,103.01956725644519,0.008516420352242107,-0.05780701920053144,1.7626684853171806e-05,,,,
1.31,-0.6358651827204647,-0.0890480596997354,103.03985160168511,0.010181117801216425,-0.0581471497342332,0.0006843935799045854,95513.9544079698,,,
1.3133333333333335,-0.6618987725758076,-0.09788800548670455,103.06229134748762,0.009328848603160262,-0.05709704433779508,0.0009105107383375594,,,,
1.3166666666666667,-0.6782288771408619,-0.11568287047391103,103.09022439154847,0.01180886100840563,-0.06188457820139329,0.0005596637751583345,,,,
1.32,-0.6987259433089172,-0.12081661961731845,103.11071022712183,0.01165707964584381,-0.061324722742002166,0.001879098200493056,95499.22039543068,,,
1.3233333333333335,-0.7214673858990148,-0.13484384160498653,103.14400102828486,0.015076882474904452,-0.05833345383454822,-0.0015485919333601105,,,,
1.3266666666666667,-0.7458273847899759,-0.1525658441407352,103.17338456253192,0.011345670012557284,-0.05992804497861632,-0.0012852679661898296,,,,
1.33,-0.7721643673541069,-0.17396259145383253,103.21203837678516,0.010664697608249184,-0.05738757602585315,-0.0004670504172836058,95483.11917392189,,,
1.3333333333333335,-0.8033090367494486,-0.1833612466009154,103.24175777972134,0.006952526339032372,-0.05830043205203333,-0.0016816980505933198,,,,
1.3366666666666667,-0.8131503541564911,-0.1891663475262434,103.28353461436888,0.009237582538540168,-0.05782093986949858,0.0026045137302001514,,,,
1.34,-0.8438892252477888,-0.19489038766137282,103.3125279567774,0.009356822513763094,-0.057589856161123824,0.0018053581465496706,95469.27077894952,,,
1.3433333333333335,-0.8603305056589033,-0.20876774835018078,103.35405046859641,0.009257481153557418,-0.059252919267051896,-0.0010972068506003906,,,,
1.3466666666666667,-0.8865401462276353,-0.22086850093329324,103.38529395324095,0.0089802558916873,-0.054291691808296676,6.488529042969719e-05,,,,
1.35,-0.919691436243546,-0.22226546803279684,103.43372333190295,0.00949351876115344,-0.05555719724891653,0.0006452044275798524,95451.36358714443,,,
1.3533333333333335,-0.9326611245626848,-0.23797652572692055,103.46498067134654,0.008188505305570151,-0.05309505324277219,0.0005782231487431797,,,,
1.3566666666666667,-0.9568969702659265,-0.26871595934233067,103.51589121187982,0.007195191838046192,-0.05300204353256583,-0.003780617798706172,,,,
1.36,-0.963671896558058,-0.2630411433626063,103.55335996505298,0.00801496269715706,-0.05148165630686481,-0.0034970161740486448,95436.76289264929,,,
1.3633333333333335,-0.9974680993794547,-0.2732741214956669,103.58731909330831,0.010651558383078246,-0.05370158483390687,-0.001087637294195893,,,,
1.3666666666666667,-1.0198254604347046,-0.27762706475835325,103.6451546499009,0.010414474710421565,-0.049729846679334805,-0.0018099224096905055,,,,
1.37,-1.0461035632969509,-0.2973111943785079,103.68848932626071,0.010438644983140486,-0.04798072530466297,-0.0015630877663667612,95419.84995087498,,,
1.3733333333333335,-1.0508364618686092,-0.294243900829503,103.73317219699265,0.008212566279355633,-0.04444125072348432,0.0010066662680913324,,,,
1.3766666666666667,-1.066466212301336,-0.3080339249605866,103.78728386372522,0.007692740645260639,-0.04067796393646193,-0.002315475698236586,,,,
1.3800000000000001,-1.0864867765647923,-0.3198725400253852,103.8296388357909,0.0039410351622206205,-0.042676697919074115,0.001103955471285814,95404.61088794266,,,
1.3833333333333335,-1.1036011589976387,-0.32615625904800455,103.89106185437068,0.005676766584016725,-0.042078912821723664,0.0007898034773079952,,,,
1.3866666666666667,-1.126731057700017,-0.3346713330312327,103.94309736392069,0.005314379014483458,-0.041379905307946496,0.00177188165763756,,,,
1.3900000000000001,-1.1317891683648365,-0.3380279155565074,103.99935090435997,0.006634951774153591,-0.037811994394392916,-0.0022928117336179004,95389.07268699609,,,
1.3933333333333333,-1.1389464869966275,-0.3468427421681946,104.06914121128496,0.006291773299985696,-0.038011258206761926,0.0015851983313472171,,,,
1.3966666666666667,-1.1618157026724414,-0.35270283230873606,104.10998195306372,-0.0011008905287181537,-0.03275955876129335,-0.0007938024307367805,,,,
1.4000000000000001,-1.1642228842267528,-0.3554621056106572,104.18691704788044,0.0036546338175443716,-0.032203982047886416,0.0014253897885122381,95371.87373870888,33.49858139595885,-99.33768702322661,504.0131036088399
1.4033333333333333,-1.1743499583930201,-0.3569551858416031,104.25147781107144,0.0036850234906534505,-0.03219630871247981,0.0034946979268540832,,,,
1.4066666666666667,-1.1976638368130672,-0.3645640057249692,104.32201582015144,0.0032260599088914424,-0.026850862990326286,2.9258654302277435e-05,,,,
1.41,-1.198734173385682,-0.36941749996186607,104.39410298005565,0.00308182432065955,-0.026365559349221374,-0.0008717457066886251,95355.3694886357,,,
1.4133333333333333,-1.2144557118754222,-0.36941994486327584,104.46299764837416,0.0017208239617625902,-0.023133620693578452,-0.0008144533102211612,,,,
1.4166666666666667,-1.2162856094176542,-0.3626716118655428,104.54349254703527,0.004658689699041949,-0.023174290045335787,-0.0021597946674319383,,,,
1.42,-1.2119022379280657,-0.38143154724748846,104.61645122713325,0.0012119924865040825,-0.021555264214641445,0.0022210345950901826,95339.39391040152,,,
1.4233333333333333,-1.232625141635323,-0.37395434540393574,104.66790781779059,0.00259892505225955,-0.01604316264922052,0.0013180110067795379,,,,
1.4266666666666667,-1.235019122632632,-0.3730330828482697,104.73326485415862,0.004250110626882266,-0.014670397124545643,-0.0009471734437675599,,,,
1.43,-1.2212366194110162,-0.37036011221652637,104.78447897807625,0.0005395985662387671,-0.010137177186593713,0.0009806055478172517,95322.34752706513,,,
1.4333333333333333,-1.2261382701131007,-0.36961760312448644,104.82693485880087,0.0008654349498655937,-0.012710716350679793,-0.00030946432821385634,,,,
1.4366666666666668,-1.2311887175309326,-0.36825603159237164,104.88096616357822,-0.0021369199421270866,-0.009272238856094931,-0.001999317806615776,,,,
1.44,-1.2286794216976438,-0.35910842842014695,104.93652729817681,-0.00015568135428920725,-0.010796037853842448,0.002232216649045064,95307.14694929037,,,
1.4433333333333334,-1.227318129139321,-0.36531218942890314,104.96233043490565,-0.00221582063564305,-0.005968646698815998,0.0008552624067925313,,,,
1.4466666666666668,-1.215956306869782,-0.3669307374343614,104.97641742509447,-0.002993062052398956,-0.004501732661699458,0.0007289808402633464,,,,
1.45,-1.22384772939657,-0.34757394589996254,105.01255846610013,0.0008245591735874594,-0.0005797089969060878,-0.0029062097962984945,95289.56118629011,,,
1.4533333333333334,-1.2060200972423127,-0.35248271476515397,105.04186589919473,-0.0022348781114972668,-0.0008881260730944501,0.000758578537041488,,,,
1.4566666666666668,-1.19455022779901,-0.35157255379850766,105.0659159851479,-0.001635920052839843,0.005004079789701143,-0.001724360947970593,,,,
1.46,-1.1992898262902632,-0.3403266675393185,105.09338465301583,-0.0036713467651353607,0.0005996076936354957,0.0014460694430721507,95271.12360116131,,,
1.4633333333333334,-1.1885160748389998,-0.3290703893685488,105.08217065981897,-0.00043771359442574403,0.0045549971996177024,0.0004736316826984166,,,,
1.4666666666666668,-1.17474026837688,-0.3305429410780065,105.07217521331353,-0.002818613607329333,0.008683961817348039,-0.0004934718593080853,,,,
1.47,-1.1604259993618702,-0.32763989782606656,105.06533686602342,-0.0030812836399466805,0.008339644231787355,-0.0015687859465564403,95253.80916170603,,,
1.4733333333333334,-1.1534380047150605,-0.3217429733145589,105.04641792671978,-0.0008616067669755729,0.010339752251650652,0.002304393149601065,,,,
1.4766666666666668,-1.1430646936947586,-0.3016734324015039,105.03505203041799,-0.005865730102608131,0.009971454357226916,-0.0011142864287130487,,,,
1.48,-1.120445954069691,-0.2958542705024252,105.02738256991154,-0.0043003072152142515,0.013397008744367249,0.002180159275575395,95236.82009154456,,,
1.4833333333333334,-1.1198790249101709,-0.29684845844738006,104.99262407227673,-0.006485359026795556,0.00911173778440092,0.00042713006863146885,,,,
1.4866666666666668,-1.1007099550488697,-0.2749025325464973,104.96304521225908,-0.006754427597595966,0.01423015854954066,0.0033399308723942056,,,,
1.49,-1.0903090208287893,-0.27079336292875106,104.91235456011536,-0.00674559025913311,0.01840703845204606,0.0011680345495844887,95220.79718467609,,,
1.4933333333333334,-1.0719418469284334,-0.2530739811469609,104.88662337279371,-0.005446516679904333,0.01791095258412947,-0.0007350756747573229,,,,
1.4966666666666668,-1.0503564577401843,-0.25483685471341544,104.86506167758836,-0.006937368299326684,0.02185298031839482,-0.001833279149577055,,,,
1.5,-1.0313721427841667,-0.24093824889847948,104.81384789974486,-0.00959475738104629,0.01839724320982775,0.0016195742489874942,95201.35398314832,33.49865418499617,-99.33765605455825,519.882270863419
1.5033333333333334,-1.0125934945326418,-0.2303896377873248,104.8000234618462,-0.00981414977869667,0.02001675684701521,-0.0003390403204345064,,,,
1.5066666666666668,-0.9885380129910584,-0.21590933108298324,104.78532016534626,-0.0037152717168320937,0.022060876541223,-0.0025923150932448905,,,,
1.51,-0.9735097986597293,-0.1997891317784754,104.75964645644838,-0.006057894434070334,0.021440836610243333,0.0001021360644690961,95184.41329622146,,,
1.5133333333333334,-0.9537077109347653,-0.2035889446355861,104.7364583220588,-0.004345171094355538,0.022673348365826906,3.4644263970145414e-05,,,,
1.5166666666666668,-0.9338056342649309,-0.18242419976284657,104.70717752543267,-0.007835336668018509,0.021813753831472597,-0.002178832534576842,,,,
1.52,-0.912348621813375,-0.16746031891021992,104.69333114422255,-0.0048672662221642534,0.019916278340637517,9.191272791488455e-05,95166.4751629356,,,
1.5233333333333334,-0.9050404063304425,-0.15741277970720335,104.6961973985579,-0.0037082190426975426,0.02362673098964337,0.005448187022513399,,,,
1.5266666666666668,-0.8816269104104186,-0.14692592633859528,104.68557307914419,-0.006145064584782903,0.02249061362131627,0.0002879721541040366,,,,
1.53,-0.8497869971247715,-0.13484572228819225,104.67543532104692,-0.007344510917284701,0.020590190987877892,0.00020539084036919972,95146.80072097163,,,
1.5333333333333334,-0.8283108260245661,-0.11763205868674946,104.67866971815431,-0.0067989876421534505,0.022089168017137534,0.00013100441139281716,,,,
1.5366666666666668,-0.8124670213602345,-0.11103340594871282,104.66915238352713,-0.009346825017840921,0.023957165907545642,-0.0010668503925951537,,,,
1.54,-0.8082436149356249,-0.10992926022243156,104.6720770769045,-0.008020393004110372,0.021122410994570514,-0.0008574578805993819,95130.46510421611,,,
1.5433333333333334,-0.7796842409126573,-0.09528112703837008,104.67011417020609,-0.0027658712483239014,0.02096671810002986,-0.002143008631021598,,,,
1.5466666666666669,-0.7587024483630962,-0.08060757075371579,104.66953272842066,-0.007319644119683733,0.02128351461047157,-0.0005557159228866511,,,,
1.55,-0.7458082218148065,-0.0655291073376506,104.66035297736201,-0.004414137887241077,0.020049510010843426,-0.00028999408134741005,95112.6923647515,,,
1.5533333333333335,-0.7238033192090895,-0.05910937253380401,104.65992007471553,-0.0053484046603080315,0.01944568959762401,0.00012230521445527915,,,,
1.5566666666666669,-0.702729889305948,-0.05101256371254944,104.66028321399303,-0.003192018641469926,0.02329115990039061,0.0005305071061830916,,,,
1.56,-0.6883040009581431,-0.04915094512107839,104.66611373567784,-0.00452731917127577,0.022491492347590226,0.0002564710871889664,95092.5275951212,,,
1.5633333333333335,-0.6756737756394465,-0.027088253027623663,104.65215255168482,-0.005670831872553512,0.01727159460217502,0.0002673708868441734,,,,
1.5666666666666669,-0.6693758133620208,-0.03244475096181777,104.6437927446635,-0.005212819384634625,0.013928964401890499,-0.002976411324573461,,,,
1.57,-0.6391638509571737,-0.017369967023396462,104.63085912921852,-0.005976527721165146,0.014468971492795427,-0.0003985167336651483,95075.84450918368,,,
1.5733333333333335,-0.6192572220247563,-0.015833072823589252,104.61842653090935,-0.0021003475554751145,0.013107358488102678,-0.00010372094030410767,,,,
1.5766666666666667,-0.609678360761947,-0.015408484466935247,104.5965607781746,-0.0014162031434853811,0.012851018751632774,0.000331971077198999,,,,
1.58,-0.5939179737689767,0.010140243943793564,104.59413820565142,-0.005164466778142417,0.011172458463304856,0.001488880915305062,95055.73016595037,,,
1.5833333333333335,-0.5758678835216534,0.006168138736601414,104.56306360694222,-0.0043082466817480096,0.012987062340849106,-0.002476360485410859,,,,
1.5866666666666667,-0.5717633417696728,0.009997558044694634,104.53349779826807,-0.003681906375342622,0.01126984187501855,0.0003040539228243471,,,,
1.59,-0.5539340439676038,0.01444758575072029,104.50045062192382,-0.003967734210131937,0.007202278816355417,-0.0007970128137875245,95037.91215119981,,,
1.5933333333333335,-0.5591254335342704,0.028304792731024084,104.47138049034645,-0.0026814217066790987,0.004485439709152914,-0.0005094267537253738,,,,
1.5966666666666667,-0.5460385790257037,0.02349785633788448,104.43976352052802,-0.0020710687844342885,0.007854443314271656,-0.0016032065689394889,,,,
1.6,-0.5310386684292018,0.025101847577476327,104.4119648823829,-0.0045189713127856395,0.0045619237127421264,-0.0019452213043557284,95020.09130483039,33.498626017254665,-99.33764761353224,542.0473086453081
1.6033333333333335,-0.5184445936785175,0.03218110271040236,104.36299847625001,-0.0005622039208481339,0.00020386351687977367,0.001998254993849607,,,,
1.6066666666666667,-0.5136647305296193,0.0382283762308278,104.30592246287868,-0.0019942153155584367,-0.0029061111301787483,-0.003307867329901807,,,,
1.61,-0.5131116072179344,0.05126944676575532,104.24293678021068,-0.00042464316036351494,-0.0009909115267744196,-0.0003058995640916736,95000.58122833981,,,
1.6133333333333335,-0.5204074967410189,0.037149127473345235,104.19707183872707,0.0008056158033175709,-0.0028319609989931127,-0.0018245604527553604,,,,
1.6166666666666667,-0.5187797363463421,0.03621825793303536,104.14116930981483,0.0010872701550733723,-0.005739789507479724,-0.0011572815885205012,,,,
1.62,-0.5108889401003929,0.02555619290141141,104.08994237401049,-0.004569097478966686,-0.0047856307607002544,-0.00029892554488818976,94981.18533764077,,,
1.6233333333333335,-0.5166887541589708,0.04084011263256249,104.01443662519469,0.0018032184424948412,-0.003929098005056225,0.00010605440292463841,,,,
1.6266666666666667,-0.5158764105775998,0.03762800789384299,103.9492794405678,-0.0014302803044674002,-0.007646467464557233,-0.002106357165429088,,,,
1.6300000000000001,-0.5242012696502643,0.03412944851029609,103.88434502481702,0.0024712903432934086,-0.007580648055770883,0.0012306088428526243,94959.958313134,,,
1.6333333333333335,-0.5234227868365885,0.02894878019185036,103.82560540186722,-0.0019292939696720713,-0.00781359401043576,0.0006411522999432341,,,,
1.6366666666666667,-0.5262939937677885,0.024246403141348304,103.74561855514399,-3.923715696412845e-05,-0.011742448098489568,0.001871236854853929,,,,
1.6400000000000001,-0.5330482744368513,0.015470354228658256,103.68380962180426,-0.00027286251385268655,-0.01220857643926454,0.0029213767493965967,94939.97207947246,,,
1.6433333333333335,-0.5239139535474732,0.025758349708739636,103.62102085439557,0.00038664343787815137,-0.011264070880091275,-0.0009412694664429873,,,,
1.6466666666666667,-0.5437530783723588,0.017279367611325237,103.5649584310934,0.0015227867279413811,-0.01482596621149535,0.0023480125692996023,,,,
1.6500000000000001,-0.5488457677794055,0.010040415661249446,103.48608233325204,0.001817083891803352,-0.015872744156063046,-0.001578618147302854,94923.03370346417,,,
1.6533333333333335,-0.5638754431126787,-0.004633110641954828,103.42621031426968,0.002642207613661205,-0.019372931971795224,-0.0001611468498270003,,,,
1.6566666666666667,-0.5758325048697537,-0.010029998461820348,103.3630584599908,0.004695234828514432,-0.01854952091636429,0.0022301524685765474,,,,
1.6600000000000001,-0.586370786319329,-0.0039896150932618845,103.30123797066649,0.005004231367912847,-0.02060272651824427,0.00034757110418363304,94903.71918642239,,,
1.6633333333333333,-0.6016417045267206,-0.01236979858275081,103.23488588641801,0.0005519031716061124,-0.019971832775581053,0.00021117063137178447,,,,
1.6666666666666667,-0.619295145005163,-0.0315040147324327,103.1869522817065,-9.335655716028422e-06,-0.02366732102739196,-0.0003659639253941236,,,,
1.67,-0.621222765020399,-0.03437234631977294,103.12249568281614,0.00010427163657317695,-0.022033531668768157,0.00029755954843396163,94884.00354521019,,,
1.6733333333333333,-0.6474777299997475,-0.04671081408975199,103.05804717754805,0.004059856289006781,-0.024737265704660005,-0.0012762196372545934,,,,
1.6766666666666667,-0.6570517346715509,-0.04989711995186291,103.00858001884458,0.004094766210501382,-0.024864510693244028,-0.0014672314171670186,,,,
1.68,-0.677678277971602,-0.06256219913486262,102.95013673158955,0.0009008183886420654,-0.025411697062406816,-0.001281953451836191,94864.2754166404,,,
1.6833333333333333,-0.696390673180541,-0.06829822921769295,102.88389495546653,0.004553699359666524,-0.025384367813440407,-0.001988570268080487,,,,
1.6866666666666668,-0.7011037536920021,-0.0761959829372877,102.83553532100554,0.004684492167962054,-0.02749011256432191,-0.0022930176272587476,,,,
1.69,-0.71334356290563,-0.08915597217923625,102.78580244369213,0.004760276585028835,-0.029933468078227096,-0.0021880273262156144,94843.82084816735,,,
1.6933333333333334,-0.7364782041071475,-0.09081094229077336,102.72135265135421,0.0033276439098242844,-0.027587068378252692,-0.001147946650408678,,,,
1.6966666666666668,-0.741771967186925,-0.10361094866855143,102.67999151815071,0.0032483145142623527,-0.028083658102177632,0.00010162422342795108,,,,
1.7,-0.7725509460354715,-0.12054625484004429,102.61417650398022,0.004955436002448816,-0.02688242564270807,-0.0007721871697827703,94823.65041916957,33.498613306900346,-99.33764065110591,560.7054425516864
1.7033333333333334,-0.7790241717096039,-0.11090555280731243,102.558979476219,0.005692601662620256,-0.025360095739384796,-0.0028878181821160053,,,,
1.7066666666666668,-0.7992892033368691,-0.14169712014418978,102.5154862993964,0.004177419061355388,-0.026726051582024943,0.001298842343148667,,,,
1.71,-0.8224875773945342,-0.13565559878458047,102.44723636403899,0.003167084632783437,-0.027379115062145777,-0.0007395335691235181,94802.6541379072,,,
1.7133333333333334,-0.831363509795187,-0.1453859421139803,102.40032851708293,0.005560376808150415,-0.029946723209511205,0.002809705288708834,,,,
1.7166666666666668,-0.8457665752692672,-0.1587160837954073,102.35212587927256,0.004554994703575977,-0.0300990424090354,0.0024235345612094944,,,,
1.72,-0.870615882954356,-0.16244092238167032,102.28389010024762,0.002293795506149861,-0.028908559581672256,-0.0019191045071545775,94782.19534428304,,,
1.7233333333333334,-0.8930754743950904,-0.1764751615881231,102.24848232571998,0.0013225475984568642,-0.02753611110442052,0.004773058988400143,,,,
1.7266666666666668,-0.8996049010961034,-0.18741938299095065,102.18564919280821,0.004871006243859376,-0.025065132635201742,-0.002528555788579197,,,,
1.73,-0.9255930750368817,-0.1887035071200007,102.13323160860465,0.00614049473542027,-0.02426619861743709,0.0013739939880761378,94760.99489888552,,,
1.7333333333333334,-0.9333798652362238,-0.19334970524899714,102.08455766123947,0.0031723508347052554,-0.02546026361967611,0.00188689112617582,,,,
1.7366666666666668,-0.9455324419947795,-0.21287878661115606,102.0353287470738,0.0016428650941997427,-0.024839449985454332,0.0019610446624282185,,,,
1.74,-0.9668847056705843,-0.2151753964320841,101.9840381400857,0.00041902334752979284,-0.02398201051192106,-5.695222438416333e-05,94740.77565966446,,,
1.7433333333333334,-0.9695340663729302,-0.2138845510879713,101.93858622658753,0.0004789777022521846,-0.023400696940549533,-0.0009647238383557398,,,,
1.7466666666666668,-0.9782820078797906,-0.22287584395991755,101.88520892142162,0.006544764320783269,-0.02202455404915929,0.0009137629524018823,,,,
1.75,-0.9975188171025178,-0.22619004173030513,101.84100409252781,0.0006458605340582081,-0.021182944661295944,0.0012531073474345423,94719.1733350014,,,
1.7533333333333334,-1.014084579903326,-0.2360075283727311,101.79925010184249,0.00014603732010380534,-0.021453388604295923,-0.005120404872587336,,,,
1.7566666666666668,-1.0149160190818447,-0.24537516563727904,101.74545553328201,0.0022294302351462585,-0.02119019932207415,0.0007443257838105733,,,,
1.76,-1.016795364118802,-0.2501362153547194,101.69974914959438,0.002844344527774963,-0.022375188300412602,0.0012435296767798222,94698.83484006241,,,
1.7633333333333334,-1.0400675191733597,-0.23878164032921032,101.65763977651022,0.0020825453982565743,-0.020148716755695777,0.0002487092810005181,,,,
1.7666666666666668,-1.0345879309029669,-0.24914965423194851,101.61788030720155,0.0021552418259051832,-0.016762222734961266,0.001093722976206117,,,,
1.77,-1.049840382519515,-0.24783773877403986,101.5872807540996,0.0014268631668506414,-0.017411107101766063,0.001749143720691134,94680.34489610302,,,
1.7733333333333334,-1.0565335317350462,-0.2555059101491066,101.53708788004892,0.00026670972262830296,-0.01567597974720538,-0.0021889492100879778,,,,
1.7766666666666668,-1.0532231033981567,-0.2572716731824002,101.50622827143185,0.0013208637188645174,-0.01480150558068168,-5.083320426290544e-05,,,,
1.78,-1.0606597961809594,-0.2444993692607128,101.47316411425345,0.0033941337253955125,-0.013555940239374856,-0.0007616443991174979,94656.07815982575,,,
1.7833333333333334,-1.0625090488265891,-0.2608020967925785,101.43285392333286,0.00031563518898891315,-0.013150498951802349,-0.004404546050070109,,,,
1.7866666666666668,-1.0629119696074711,-0.2568673491317054,101.41007958129369,-0.0027330766557942844,-0.01048453646552236,0.000810678347953498,,,,
1.79,-1.0617639994326697,-0.2552284301977867,101.3817348382247,0.0008778832409190283,-0.009213580899989292,6.329449344805242e-05,94636.06962277804,,,
1.7933333333333334,-1.0598402322505667,-0.2509220362871879,101.34011112242393,-0.0020704429596942776,-0.008290198374917093,0.0008247554747275596,,,,
1.7966666666666669,-1.0526515788438233,-0.25229731157056395,101.30431378085336,-0.0032078337406647394,-0.00761508627677758,0.0016467207621140313,,,,
1.8,-1.0594948927794117,-0.24487438717165796,101.28349800841767,-0.0025670510131530376,-0.006542870203269398,0.0003140820428549626,94613.61223913926,33.49861973985645,-99.33765699118251,575.2285742716155
1.8033333333333335,-1.050126794754386,-0.24611264618131487,101.24185267714509,-0.0020136413962102044,-0.004111071567252907,-0.0010367444718707812,,,,
1.8066666666666669,-1.031525546135154,-0.23491618999491848,101.21355330751032,-0.0020247022438233168,-0.006002252455137224,0.0010958370429747016,,,,
1.81,-1.04046487716395,-0.23528542623988183,101.17430323035721,-0.0020258297995103406,-0.003304049045784044,-0.003317455794184026,94594.11225841251,,,
1.8133333333333335,-1.027924763020022,-0.2340384262782161,101.14217250140644,0.0006972404820053562,-0.006999268672718224,-1.749261074244729e-07,,,,
1.8166666666666669,-1.0358292407739216,-0.23757415953377448,101.09124261799037,-0.001539635652483539,-0.004605708586793445,-0.0009080969297724519,,,,
1.82,-1.0251712256924481,-0.21218718519293683,101.0599412967582,-0.0010282354104911844,-0.0035152107400955855,0.001769609128556077,94571.58846588584,,,
1.8233333333333335,-1.0182323516918437,-0.22136053857194404,101.01200243883218,-0.0010465664293889576,0.0006110076742452075,-0.0021872053329528326,,,,
1.8266666666666669,-1.0140233358599098,-0.20987236769456813,100.95295960935205,-0.0041462255469606685,0.002625545679761551,0.0006865735485549627,,,,
1.83,-0.9867640918995156,-0.20129670933185506,100.90562708083385,-0.0021755436371891763,0.0022246059929091366,0.0007757072981342492,94550.60675823742,,,
1.8333333333333335,-0.9788570518586691,-0.1967588296288229,100.84780032860412,-0.0034705674180610232,0.003306772383079818,0.0012149921523345014,,,,
1.836666666666667,-0.9765171242863407,-0.19435881217051582,100.79213980446856,-0.0044242200143730925,0.005674577118151088,-0.0012959784367823695,,,,
1.84,-0.9672272914528638,-0.18174456124674632,100.74660609970768,-0.0037091143223209103,0.00013735133294386038,-0.0014719050752291906,94527.10154972205,,,
1.8433333333333335,-0.9377736578727626,-0.17822100214515074,100.67559780534103,-0.002000006884501234,0.002679225595113504,-0.00019504578450702718,,,,
1.8466666666666667,-0.9342217515460106,-0.17385759220609928,100.597193255475,-0.0030216981045589533,0.0011133857623371445,0.0008394682442253137,,,,
1.85,-0.927281714044992,-0.16765622498166607,100.51597782705153,-0.00035547434835106733,0.0020638440749732897,0.0012318174071265918,94504.47665384079,,,
1.8533333333333335,-0.9050994166672968,-0.16266112260755658,100.43571936648034,-0.0022075649459579625,0.0009359811746456528,-0.001936782999931804,,,,
1.8566666666666667,-0.8980142446748617,-0.1555017820540436,100.3550044338022,-0.0023541999375918483,0.004564284905524732,-0.0020670884130987387,,,,
1.86,-0.8914247008843138,-0.14834941305311627,100.28355622418692,-0.002952287742428281,0.0036670904579826653,-0.0026529892424362825,94483.44123570171,,,
1.8633333333333335,-0.8812648810545806,-0.12556447613465313,100.19215423802707,-0.0035746247989831303,0.002666152523888167,0.002142549098930026,,,,
1.8666666666666667,-0.858454741755222,-0.131227761861181,100.09706700726292,-0.0018775701981689436,0.0023165664107739087,-0.0027146788262644612,,,,
1.87,-0.8570875407858448,-0.11743214081960537,99.99579978118325,-0.004117848732737881,0.0016486681191080926,-0.002161139918731744,94462.08091154903,,,
1.8733333333333335,-0.8490861166628413,-0.11990846586423354,99.90045154059287,-0.0016110326604368867,0.006169835178225131,-0.0031343213528950324,,,,
1.8766666666666667,-0.8337579885684834,-0.10495171089422367,99.80208487636003,-0.004434357779074918,-0.0006893719727646898,0.0009324098887979993,,,,
1.8800000000000001,-0.8225985371806689,-0.10321871693142035,99.70934817521274,-0.0031732592801198764,-0.0008948133418257178,0.002382370881860862,94438.44119555902,,,
1.8833333333333335,-0.8050933247793619,-0.09485973521157734,99.58847135183156,-0.001409416131070812,-0.0001743121063539732,-8.612629740339843e-05,,,,
1.8866666666666667,-0.8117476018620577,-0.08650541616300456,99.48357983699154,-0.0014963229994757231,0.00031644851810533055,-0.0010257035673728208,,,,
1.8900000000000001,-0.7880520705896876,-0.08630473343025133,99.3727233766066,-0.0008769211005728048,0.0017815214990289337,-0.0008208457856964367,94414.70908919901,,,
1.8933333333333335,-0.7755790598140061,-0.08442319432231139,99.25524439348315,-0.0029021678593758654,-0.0010539950385464137,0.001249158176710735,,,,
1.8966666666666667,-0.7675276764170579,-0.07271699654999535,99.16576737948904,-0.0025720493709236823,0.0007804989247843967,0.0004570131388083844,,,,
1.9000000000000001,-0.7640266309231593,-0.06934428721141554,99.03292722909701,-0.002282038049587304,-0.00033323653170195416,-0.0017848989056615929,94393.94601192955,33.49867259608373,-99.3377094523664,593.620736506051
1.9033333333333335,-0.7453642215063355,-0.0669808591477922,98.93243117102269,-0.0019015652248847211,-0.0004665755781288914,0.00029828754343615306,,,,
1.9066666666666667,-0.7568739791805952,-0.05928298727805533,98.81696219199691,0.0002884770395470901,-0.0008396353215011794,-0.00014295892430188088,,,,
1.9100000000000001,-0.7387645748166423,-0.07771737929604472,98.69657561403199,0.002103807356781865,-0.003509200649296512,-0.0013838683115115786,94370.03094955362,,,
1.9133333333333336,-0.746784233934905,-0.06428608531694421,98.5885827426359,-0.00047515462303903756,-0.005395592453766643,0.0017418955272040524,,,,
1.9166666666666667,-0.7372350271193205,-0.06157725990883143,98.46909845247643,0.0031414317536105274,-0.0028819265071679647,0.0018598800457438587,,,,
1.92,-0.7211819458892309,-0.05316897841735285,98.3467940642058,0.001669293411852173,-0.003828747571933505,-0.0007027838860955446,94348.96721219091,,,
1.9233333333333336,-0.7311670783583986,-0.05400417098414918,98.24008624510496,-0.0012343526546456426,-0.005171274441407457,0.000715331488122725,,,,
1.9266666666666667,-0.7328038852207228,-0.05113749598981442,98.13022687612084,-0.00335421504277567,-0.0075946076727332916,-0.0008348306573259506,,,,
1.93,-0.7239407894794648,-0.05711917265558137,98.0238077142878,0.000162601400127911,-0.004491183052249156,0.0003157629030590241,94324.46661466181,,,
1.9333333333333333,-0.7209696221298151,-0.05050389172106968,97.91852402259687,-0.0008227069553394162,-0.007459245379735661,-0.00010464628050580302,,,,
1.9366666666666668,-0.7353632480331466,-0.04851949668861666,97.81443284591802,-0.0003747507556442158,-0.00823851262280346,0.0011915170511612914,,,,
1.94,-0.726713836522828,-0.060150679997457865,97.70615996313136,0.002995419266015206,-0.00828606197056619,-0.0003781629496305987,94302.3708015258,,,
1.9433333333333334,-0.7311753835365346,-0.0617082181822935,97.5938735642386,0.0016903429749432549,-0.00808701820793234,0.0010714717730919035,,,,
1.9466666666666668,-0.7299517848509011,-0.05758117005088214,97.49943531742842,0.00012123988572791564,-0.008954567173075538,-0.0009274631500720137,,,,
1.95,-0.7390679587548332,-0.06213718584744786,97.3810215340768,0.0009077803413020209,-0.00900699844052154,-0.0007663488758251991,94279.22992545509,,,
1.9533333333333334,-0.7462565149142607,-0.05834019391336877,97.2763279661174,-0.0004046800897848341,-0.012840292447453027,-0.002518054099346387,,,,
1.9566666666666668,-0.7445767157464219,-0.0754603806820742,97.1613385819272,0.0002346072860080599,-0.00950581963500821,0.0017056426979902433,,,,
1.96,-0.7544815948143148,-0.06493021368450383,97.04970385713723,-0.00046203214435699513,-0.010664975537143311,0.0005057222072733263,94255.96930068465,,,
1.9633333333333334,-0.7659968026589425,-0.07294055008123372,96.94120684257997,0.0028851734644340134,-0.011342027160892852,-0.0007449963467548534,,,,
1.9666666666666668,-0.7671336415744879,-0.0828161928592905,96.81192006070795,0.0023143907682949476,-0.012661484262615605,-0.0009938078615673632,,,,
1.97,-0.7805627821231383,-0.08465498781221298,96.69453430708235,0.002812284388777158,-0.012906850386013243,-0.00020344887816544318,94234.11932187037,,,
1.9733333333333334,-0.7891815775146225,-0.08714156231285934,96.57667299703931,0.0032279902673446512,-0.012718183742781683,-0.002611371748700615,,,,
1.9766666666666668,-0.792032222414239,-0.09558658578535882,96.46303658927562,0.0022107356275592755,-0.01594590716512294,-0.0018246592042369702,,,,
1.98,-0.7949653145040075,-0.10608719904891427,96.3460492399384,-0.002390053826715089,-0.013861634413687571,0.0010899455420720879,94209.62130131696,,,
1.9833333333333334,-0.8208604211069416,-0.10868156480560034,96.22595809104709,-0.0014672686762330228,-0.016542109334780022,0.0008027661761483383,,,,
1.9866666666666668,-0.8278927910060304,-0.1058446953433855,96.09147749734437,-0.0004664581302367204,-0.016290104180643073,0.0012030219543315026,,,,
1.99,-0.8153292667024383,-0.11329190693464648,95.96582854145169,0.002905281262163984,-0.014345088699844459,8.844260555741762e-05,94184.60521743045,,,
1.9933333333333334,-0.8394377705118221,-0.11826754123620685,95.83875655857939,0.002956476650022178,-0.016873697515296094,-0.000580614822516547,,,,
1.9966666666666668,-0.8457068289231652,-0.12948642577710992,95.69971015368328,0.001490012717212826,-0.016083087140223128,-0.00011394891142196679,,,,
2.0,-0.8586970955546993,-0.12735520831114225,95.58389103317748,0.0031569019221333577,-0.019127428719450622,0.0014780627959804571,94160.74658698929,33.49866204344039,-99.33766853492112,614.5317876419331
2.0033333333333334,-0.8581752661730767,-0.1374705247655942,95.44904513789473,0.001513474769221131,-0.0165420920098225,0.0019732246066076183,,,,
2.006666666666667,-0.8662405892831387,-0.13813256512281982,95.30720379331846,0.00028945369128501367,-0.01544622133803427,-0.0032876016071968087,,,,
2.0100000000000002,-0.8934198555929583,-0.1396782496623253,95.1792112871705,0.0022872309133536214,-0.016029018692152678,-0.0005266883213445189,94136.66210126154,,,
2.0133333333333336,-0.8941622809331427,-0.14495478645886822,95.04426965573694,0.0033444086947489043,-0.012869690866879821,0.002619351356395605,,,,
2.0166666666666666,-0.9015739651853623,-0.16079811129873267,94.92200394184744,0.001516730886871773,-0.017332607910209935,-0.002124514509240062,,,,
2.02,-0.9128595927992436,-0.16502623628930574,94.77680349148459,0.0043412029209854205,-0.014334289741594904,0.0025318927181800497,94113.51103314033,,,
2.0233333333333334,-0.9249114094008573,-0.16388007992607576,94.62649610836958,0.0034189144686705367,-0.014946708130014714,-0.0018572013675803496,,,,
2.026666666666667,-0.9296641072405529,-0.16523117604322984,94.4849090706505,-0.0014615138562178612,-0.010287801584722965,0.0014164069764846577,,,,
2.0300000000000002,-0.9375998317057411,-0.17933525899779307,94.3492185676041,0.0031302921975281325,-0.014092832208604265,0.0005059801157934246,94088.80745149982,,,
2.0333333333333337,-0.9288744199786179,-0.18499248538875868,94.20355034631365,0.001872320676353374,-0.014185400966397395,0.00036594231736344847,,,,
2.0366666666666666,-0.9483724747699567,-0.18461330786149274,94.05609331095197,0.004000360933919617,-0.014558973729072097,0.0020159254130932085,,,,
2.04,-0.9475253848090163,-0.17766268126157558,93.90728460220959,-0.0010615333082781009,-0.013322593456830126,0.0009283005287937818,94065.67254491607,,,
2.0433333333333334,-0.9689998346305704,-0.17871708381657211,93.73534453355114,0.002300208428240605,-0.011811297128287396,-0.0028825369320849637,,,,
2.046666666666667,-0.9696944451782872,-0.1784071171901293,93.55848122461673,0.001008485069651189,-0.009935994634294284,0.0005979420308642334,,,,
2.05,-0.9656848930093752,-0.19444172723430145,93.38064640206798,-0.001518397325465258,-0.012022138303700157,0.0033595156628181974,94041.46198484403,,,
2.0533333333333337,-0.9683028217133038,-0.18073828983330106,93.19690606869634,0.0016154134966561364,-0.013737214127992992,0.0002794639800952567,,,,
2.0566666666666666,-0.9718352061656332,-0.17990759772162157,93.02600765979508,0.0024451535849930074,-0.012924259327468931,-0.0011979250650297239,,,,
2.06,-0.9730272380334513,-0.19484898257759803,92.83972690205697,0.0016637491691555472,-0.008072664165389954,0.000588644069451011,94016.56501670988,,,
2.0633333333333335,-0.9799069359595814,-0.17866329644139878,92.64189171181974,0.004333413544717317,-0.00917648122264466,-0.0038142132911831114,,,,
2.066666666666667,-0.9737805791936353,-0.1882098736755008,92.4215395200062,0.00010754911059130715,-0.007308481795358407,-0.0014997586417641862,,,,
2.07,-0.97377063988222,-0.18792486979556738,92.21309219789498,-0.0021478978529974155,-0.007546637343767829,-0.0032723934263740764,93991.30876429102,,,
2.0733333333333333,-0.9711288130332655,-0.1852646903722695,92.00308659680535,0.0011070324894430373,-0.006957728339028428,0.0006708631192720178,,,,
2.0766666666666667,-0.9811634057086425,-0.19404400747425343,91.79287948893133,-0.0019762192743486735,-0.00848372526133911,0.000651937514404167,,,,
2.08,-0.9813690641392828,-0.1804256295061063,91.58081452431477,0.0003159453489293048,-0.009727570133885134,0.004077582495667575,93967.45057913302,,,
2.0833333333333335,-0.9776773729841264,-0.1774622910691005,91.34086542477142,0.0017451342126327994,-0.004960309568413932,0.0010235120596553274,,,,
2.086666666666667,-0.9705165628862915,-0.18874431169743694,91.10756281503778,-0.0002534497944256036,-0.003000309655218905,-0.002411584727687558,,,,
2.09,-0.9601183793329463,-0.18455260915719368,90.87589940906543,-0.001831508540687335,-0.004863687441768184,0.0011797622056547738,93941.68258167739,,,
2.0933333333333333,-0.9674029419535121,-0.17914871240680366,90.64273666250843,-0.00040892356413344086,-0.0038431095136147817,7.504201485507189e-05,,,,
2.0966666666666667,-0.9598308336442178,-0.17688774434295135,90.41745926653502,-0.0017137618145052964,-0.006867760391058574,-0.0004930465606321425,,,,
2.1,-0.9505221404714941,-0.1634299833666464,90.16150296739598,-0.001804871229288318,-0.008390253744062026,0.0017228884539214264,93916.06332625313,33.498629124722186,-99.33770517705227,644.1868422947437
2.1033333333333335,-0.9484221387859404,-0.16745446579110737,89.91297026081283,0.0008509735289072203,-0.006470773494059986,-0.002670219331346934,,,,
2.106666666666667,-0.9500207376184366,-0.1650164883020996,89.68811773089261,0.00036868113409410826,-0.007985003470422136,0.00166423719969172,,,,
2.11,-0.9442021840372338,-0.16796880058755906,89.44469722961026,-0.002287645023789517,-0.004573857990256551,-0.002392059949952562,93893.33043561628,,,
2.1133333333333333,-0.9347600984315162,-0.15612023304050285,89.19489785691131,0.0008400266591732481,-0.004359058306076513,0.002085700929920263,,,,
2.1166666666666667,-0.9389561168762399,-0.15642121346986848,88.94756288218628,-0.00043731830758136355,-0.003816349805236937,-0.0022238822678141298,,,,
2.12,-0.9178415903297554,-0.14740691100148495,88.70636676530695,0.002906142573429538,-0.001347164713128538,0.0003159323185532851,93865.17292049358,,,
2.1233333333333335,-0.9126267187644878,-0.15101289505022314,88.45591966812913,-9.742132187187831e-05,-0.003437245970294208,0.0013813641759459366,,,,
2.126666666666667,-0.9104539322630566,-0.13160564387615167,88.23303584008963,-0.003088881005944204,-0.004930752011553736,0.0008874415540977447,,,,
2.13,-0.8973742867331992,-0.1389245056414865,87.98859190803051,-0.0015574844897978197,-0.0024137011491309887,0.0013634037734880703,93843.8686292964,,,
2.1333333333333333,-0.9055505401317482,-0.14384170656515657,87.75246400988519,-0.0028309175802000964,-0.006756192733135533,0.0005172899545902235,,,,
2.1366666666666667,-0.9006006310646275,-0.1401790622501643,87.50812160815401,0.00027380419549917706,-0.0028518510560119185,0.0003856103237336302,,,,
2.14,-0.8907053405464979,-0.11800474533069714,87.2704028131586,-2.313537023534561e-05,-0.005100129510398802,4.058220402739428e-05,93816.2090901867,,,
2.1433333333333335,-0.8929638333014134,-0.12548132665877626,87.04373741280561,-0.0013536962881104872,-0.004867552326697312,0.0007497684489127015,,,,
2.146666666666667,-0.8833830619358528,-0.1195677690159847,86.82788709440388,0.0011678638069360227,-0.004057212181789101,-0.0002186066232835909,,,,
2.15,-0.8897914932408829,-0.1108854403175629,86.62294420068457,-0.00046766671477104627,-0.004735281466889471,0.00028305011647938226,93791.06156689045,,,
2.1533333333333333,-0.8637515416546753,-0.10793372609540391,86.409760355199,-0.0005765571352198791,-0.005040366783136465,0.0010838976234122293,,,,
2.1566666666666667,-0.8604436832374744,-0.11401851822700053,86.18039468476579,-0.0014671124719591714,-0.0011707372808849562,0.0019180324242830604,,,,
2.16,-0.8712674510363657,-0.10916989035488664,85.96780137063924,-0.003608160821414724,-0.0071076704674729535,-0.0006585762189847593,93766.44503991926,,,
2.1633333333333336,-0.858098807297198,-0.10381923450114627,85.75253297557887,-0.0021472419928480297,-0.0017089788321488497,-0.0019244633057084169,,,,
2.166666666666667,-0.8529029610514033,-0.10957381344787587,85.55749765405766,0.0010938837061910756,-0.005740636110240397,-0.002454067906325323,,,,
2.17,-0.851043434900787,-0.10718287766081848,85.3518171929769,-0.0007341257922357272,-0.004046461212934793,0.0008819709280094288,93740.47959762024,,,
2.1733333333333333,-0.8472146284222071,-0.11259692497509967,85.13430521716613,0.0014924659859128556,-0.008355243432798396,-0.001210615403334465,,,,
2.1766666666666667,-0.8506917774323345,-0.09978107948524582,84.93735441445124,0.001697890798505398,-0.008030523155632891,-0.0009720390925675456,,,,
2.18,-0.8410307528174498,-0.09887943703864042,84.73087933745647,0.00037028862799829364,-0.0054797441026868685,-0.0005462856201669796,93714.24528650928,,,
2.1833333333333336,-0.8524613628157601,-0.09507196200492196,84.52554317398383,-0.0008014682238931493,-0.0048379693974596825,-0.0028821072629929673,,,,
2.186666666666667,-0.8464872437619032,-0.09649207872258442,84.32333937553645,-0.0008046262348542419,-0.005427019127965886,0.0005868335310896061,,,,
2.19,-0.8498878984157474,-0.08927161710909003,84.11716553196256,-0.001965619497329013,-0.008346539861941634,5.832967719191548e-05,93689.03308963792,,,
2.1933333333333334,-0.8448013871283322,-0.10159965826905237,83.92444227854256,-0.002519374108620281,-0.006739160545079949,-0.0006860901221596579,,,,
2.1966666666666668,-0.8546832202113048,-0.09732024138647692,83.7077045198963,0.00046740894672224107,-0.005791152420758061,-0.0038014626895081062,,,,
2.2,-0.8536748085225083,-0.10202883511028321,83.50977715443862,-0.002097771416472646,-0.010331554531802059,-0.0007237406552948519,93663.58772944653,33.498612434100046,-99.3376820378637,657.918265321816
2.2033333333333336,-0.8547365177139328,-0.10303122926413245,83.31133350227795,0.0009135045753718872,-0.011462962281448687,-0.002073877444819366,,,,
2.206666666666667,-0.8547108852066783,-0.11034261103573303,83.12122334603394,-0.0011529374853619784,-0.008017438542020479,-0.0014894872955927565,,,,
2.21,-0.8612309692348343,-0.10531524933968114,82.92617387608948,0.003272428902278554,-0.009456647491375212,0.00176032596637312,93637.2625731783,,,
2.2133333333333334,-0.8569004097412384,-0.11002373266944923,82.73532262830778,0.0013595039896585662,-0.007834515338320084,0.0013562388293978057,,,,
2.216666666666667,-0.8646941684725208,-0.10617892406348085,82.52860468230647,0.0012427892986991956,-0.007127800043829589,0.00011123175324159878,,,,
2.22,-0.8642399657336054,-0.1107431790083919,82.33862458743737,0.0010827568854129817,-0.011286843182915656,0.0005044889774024936,93609.65430470114,,,
2.2233333333333336,-0.8687362252870687,-0.11307131324513887,82.14043821608023,0.0028187843704911824,-0.008476636962634676,0.0013941321635261034,,,,
2.226666666666667,-0.8732211347679806,-0.1204408491584025,81.94410526901905,0.0019523273092323158,-0.010773333060597705,-0.00048804250334699744,,,,
2.23,-0.8818230604638309,-0.1170276438171881,81.75598932684068,-0.0005772889195175176,-0.010699532193105085,-0.001152139992457677,93584.01367570399,,,
2.2333333333333334,-0.887463819997873,-0.11528123124426494,81.55937186472721,-0.0033069853942881444,-0.006761207528644361,0.0017970190422348972,,,,
2.236666666666667,-0.8917010584337344,-0.12510124967427957,81.37542032558237,0.00010899574493730311,-0.006754822282920756,0.003772046237231615,,,,
2.24,-0.8949716306100842,-0.12308804360079806,81.17452758607668,0.004058119833853732,-0.012102899029149097,0.0032640495877194983,93555.64737147055,,,
2.2433333333333336,-0.8924537302325651,-0.12547164805831934,80.98345069766921,0.0015784657875755987,-0.00692394438742569,0.002906752885670217,,,,
2.2466666666666666,-0.8935114172890611,-0.1351447355547568,80.80127603358369,-0.0006338254125237592,-0.0066052602002138645,-0.0007862112056651832,,,,
2.25,-0.9027307211337576,-0.13077889266759585,80.61428590671713,-0.0001998067508982724,-0.010951542683024635,-0.002274376055736038,93529.19105131557,,,
2.2533333333333334,-0.9206068882706234,-0.12505159058716983,80.43455229788965,0.00046018398727633455,-0.01044304937836523,-0.0015804993081495805,,,,
2.256666666666667,-0.9136607158180857,-0.13662365498715318,80.25225341739664,0.0012254977511917807,-0.009414019253684982,0.0013094743821387739,,,,
2.2600000000000002,-0.9254660550397212,-0.13863075941128097,80.05723002860601,0.0019082340120579943,-0.010637138404692513,-0.00018536867130503342,93504.69525359399,,,
2.2633333333333336,-0.9247195632751253,-0.1400500486855936,79.89301561838266,0.001970092258246726,-0.011411872714622382,-0.0014653413097646902,,,,
2.2666666666666666,-0.9268505694215089,-0.1521624688942266,79.72278668112656,0.0017950878154163231,-0.01215614377120098,-0.00014177717222891724,,,,
2.27,-0.9380200844925108,-0.1424335474673476,79.55654329837044,0.0013637048084526025,-0.010033236460591344,0.0018517390639270315,93478.78281959421,,,
2.2733333333333334,-0.9363875565945522,-0.15104326552536498,79.39322151828254,0.000968051536385014,-0.011516874913762349,-0.0013483821388812045,,,,
2.276666666666667,-0.9398079140530196,-0.1476647653284769,79.22239899568514,-0.0009122668137112517,-0.009286125002137487,0.002361446578450173,,,,
2.2800000000000002,-0.9319151634740637,-0.15341688305076626,79.06521354109526,0.002053292982421286,-0.00990455611479432,-0.0028392611590161453,93450.92243748458,,,
2.2833333333333337,-0.940449777970682,-0.1519131440084802,78.90976834399105,0.0022433472792739947,-0.008210166497863462,0.001929874392953299,,,,
2.2866666666666666,-0.9408040489144591,-0.1597266931470792,78.76496902528366,-0.002189420258708653,-0.010053860017068206,-0.000951507844673834,,,,
2.29,-0.9457281144929042,-0.1542109756849649,78.61343870143244,-0.0005984117408392927,-0.007415488007666852,0.002590157443342178,93423.51275314197,,,
2.2933333333333334,-0.9501790016874786,-0.15666278500381084,78.4758384110394,0.002084619092096558,-0.012880035333248772,0.0020005725580974536,,,,
2.296666666666667,-0.9458884865306311,-0.15396375500121462,78.32376757005797,0.001896066741442922,-0.005333655738631751,0.004295971408398745,,,,
2.3000000000000003,-0.9576398889227151,-0.14906646345921606,78.17881916316972,0.004144367900325994,-0.00601406548990519,0.0006205206435590569,93398.50620322682,33.49860305598003,-99.33766002921607,690.6982247703968
2.3033333333333337,-0.9511570854381932,-0.15871018499838954,78.02296367958806,0.0009132629010123692,-0.005744133998376234,0.0009714023903836608,,,,
2.3066666666666666,-0.9589012194767892,-0.14439991827617177,77.85271888132938,0.0019480205773061803,-0.008972129601255324,-0.0005370821010799736,,,,
2.31,-0.9511493344486689,-0.1539603001700599,77.6907159082786,0.0018305368458949895,-0.007829090734997749,0.0006445197030285463,93371.34308143797,,,
2.3133333333333335,-0.9668044935949994,-0.15031665318542717,77.52861383043596,-0.0011525170697355323,-0.0055199305825219406,0.001202903892967464,,,,
2.316666666666667,-0.9447112903768712,-0.15260952392456856,77.36741645863952,0.002158915439241787,-0.008107853391984762,-0.00215627967104772,,,,
2.32,-0.9600634922328589,-0.1641199223308695,77.19546594333043,-0.00032130348230911777,-0.006778886125817848,-0.002728421971190187,93342.00842873227,,,
2.3233333333333337,-0.9586915594293058,-0.14473075552395542,76.98294515380583,-0.0006914323723468413,-0.005518999021864993,-0.002256794852925939,,,,
2.3266666666666667,-0.9529609932924699,-0.14988129073582226,76.77646773968189,-0.0008428514868368683,-0.007776348579152794,0.0022289903813161997,,,,
2.33,-0.9561084220937842,-0.14021299717699917,76.57415068359167,-0.0008013362334555679,-0.005362777718640053,-0.00010505478214096712,93317.4537076478,,,
2.3333333333333335,-0.9541779050088697,-0.15050805343901558,76.35124259075646,-0.00082603697432896,-0.0059866506797879365,0.00010223246184888863,,,,
2.336666666666667,-0.9461775070933552,-0.1421024521623856,76.13782578392475,-0.0013288323537781897,-0.007511954901103648,0.001664879838562386,,,,
2.34,-0.9472295940179867,-0.14536452261311078,75.92558419880588,-0.0009319350149392775,-0.007029532352663467,0.0012082405516480885,93289.06945596317,,,
2.3433333333333333,-0.9408215570184719,-0.1547942131071829,75.72063662790218,-0.0015196804777574333,-0.007711531130363365,0.0006542639950382717,,,,
2.3466666666666667,-0.9294809384681967,-0.14716033793551644,75.51048274769809,-0.00046413660267601064,-0.006062216312356967,0.000639737396372039,,,,
2.35,-0.9418358707136648,-0.14221993559811497,75.28544473331334,-0.002331550422891567,-0.009550267240683573,0.001170494231807054,93259.78958022817,,,
2.3533333333333335,-0.9361700810862189,-0.13692376360770153,75.07052709420657,0.0017192653617290222,-0.005035186948388407,-0.0010554179971738115,,,,
2.356666666666667,-0.9404867392443265,-0.13016050121208944,74.86672872358805,0.0004783511852632125,-0.005490495008627949,0.0014493499536902671,,,,
2.36,-0.9328334657699106,-0.13733597565190162,74.64917370227508,0.00021500500611298072,-0.004887082418502301,-0.0005134424424426573,93232.82683582345,,,
2.3633333333333333,-0.9352550082641174,-0.13122324880030062,74.92705270852218,0.0009121703112499979,-0.0034809490666616446,0.0018397569914191505,,,,
2.3666666666666667,-0.9329018468905026,-0.13285753073558024,75.35828263848009,0.0003056352841203729,-0.009442095706221619,-0.0008790874959938215,,,,
2.37,-0.9213181137717436,-0.13534069340057783,75.77217808525683,2.8977237680066293e-05,-0.004178640046619764,-0.0016661118477205104,93205.15876682666,,,
2.3733333333333335,-0.9252904718527275,-0.12584531695320483,76.19703737585895,-0.0033329798836321985,-0.006060532691172689,-0.0007034254042800151,,,,
2.376666666666667,-0.9293331262275502,-0.1233789919059155,76.62451624521566,0.0002225435769762158,-0.006680465965319229,0.0007330418773319489,,,,
2.38,-0.9193018375428632,-0.12613254796045403,77.04519809137774,6.901222219832064e-05,-0.00775853425603033,-0.0033769330433276704,93178.62765911616,,,
2.3833333333333333,-0.9262867756270622,-0.13148711583368944,77.09701299803999,0.00019309298936291425,-0.004727339550258579,-0.0001283821673325496,,,,
2.3866666666666667,-0.9168485277250269,-0.12100680856744474,77.02466765792876,-0.00022169880914599363,-0.006786557049141775,7.697977209560832e-05,,,,
2.39,-0.9138875192818272,-0.1264950896909246,76.95148622377111,0.001419095422163426,-0.004462146259442621,-0.00018034262477531444,93149.91923123632,,,
2.3933333333333335,-0.9059667644546842,-0.13110700972118766,76.8697672275146,-0.00042540018670335497,-0.008331654231458667,-0.002536510069565004,,,,
2.396666666666667,-0.9110142496885821,-0.11679735935850769,76.81897716595181,0.0033398426043448415,-0.006639691424474463,0.002988360182898217,,,,
2.4,-0.915159555476937,-0.12271159151532854,76.73934536528394,-0.0010473423242561954,-0.0065258185128837165,-0.0008017769346457217,93122.98099316924,33.49859741403252,-99.33766109506361,713.2824538772745
2.4033333333333333,-0.9098482487211322,-0.12383061681870522,75.70379306342602,0.0008112751557960479,-0.007481786649812848,0.0007153887122081111,,,,
2.4066666666666667,-0.9108476979879729,-0.12204440262761432,74.36880749040355,0.0031456075788876612,-0.008131801279319622,-0.0009514733578181835,,,,
2.41,-0.908742345920543,-0.11804622325924613,73.04176768122156,0.003059819277795095,-0.006014895230382261,0.002139197822305085,93095.58753248336,,,
2.4133333333333336,-0.9094828429685864,-0.11400429870753555,71.71971737880216,-0.001106681098173772,-0.005820455802352913,0.002541571962134205,,,,
2.416666666666667,-0.919270108103882,-0.13089186185025928,70.38463736723968,0.0005477728236732233,-0.00899509589753533,-0.000508357168803799,,,,
2.42,-0.9188845456200883,-0.12792232539579199,69.05283491635024,0.0018498281423758155,-0.003202229913210908,-0.00015202869268603878,93067.4570212152,,,
2.4233333333333333,-0.9216126036872206,-0.1291639249151371,67.5238569148092,0.0004887237749789974,-0.008232251838482406,-0.0026221383404420053,,,,
2.4266666666666667,-0.9205904931772296,-0.12357103157559457,65.91656494486105,0.0022293343401996895,-0.008618710319923322,0.002051362692015773,,,,
2.43,-0.9188824454007107,-0.12222516808892292,64.32509295685392,-0.003225306118751884,-0.00479248348515072,-0.0002031851275999042,93039.46154492305,,,
2.4333333333333336,-0.9159507198462585,-0.1243352499601635,62.73027006477541,-6.8498999747351725e-06,-0.005919994184239703,0.0004622841662418761,,,,
2.436666666666667,-0.9239426607852388,-0.1276559701738908,61.124712949726614,-0.0021946533181011023,-0.0068702877557979955,0.0014624049191991175,,,,
2.44,-0.9195380925911442,-0.12712077183968584,59.53894762228684,0.00043428433358124043,-0.007999024855597859,0.0004815240445689354,93012.68901841456,,,
2.4433333333333334,-0.929664402888139,-0.13264652243024327,57.38514218397535,-0.00019400482105871167,-0.008057153952641928,0.0031667182847742387,,,,
2.4466666666666668,-0.9260174032890834,-0.12307415063302223,55.08447249127855,-0.0005955388215192355,-0.008509174450352564,-0.002914947837615701,,,,
2.45,-0.9265990448888428,-0.1241995292500372,52.789751936559924,0.0013259603376929666,-0.008624352328262811,0.002393476303056613,92981.56491294147,,,
2.4533333333333336,-0.9366827883360413,-0.13246847672036177,50.47163374698752,-0.000375561611596427,-0.00728811595727897,0.0002040461776567569,,,,
2.456666666666667,-0.9445748354115897,-0.126545958774278,48.162316317522944,-0.0006623957281849637,-0.005946822040011466,-0.0010170229719944444,,,,
2.46,-0.9520486690128933,-0.13159282691674548,45.87774913878078,0.00017798951565806305,-0.0066571399891521485,-0.0028174637285609304,92954.44240132383,,,
2.4633333333333334,-0.9517615822766671,-0.12442213250092403,43.976244687042154,-0.002048640189498563,-0.007006627270332566,-0.0008641716565852156,,,,
2.466666666666667,-0.9597070899777247,-0.12398857500947456,42.18645374519476,-0.0023062855434316963,-0.008951726734308359,-0.0019844018969285494,,,,
2.47,-0.9667100797876618,-0.13964686158704387,40.417610687696964,-0.000995911115264762,-0.00701532602095552,-0.0006937580674151117,92925.69875656368,,,
2.4733333333333336,-0.9792449399440669,-0.13351075016462,38.631497273530634,-6.567454516236983e-05,-0.007631175094940558,0.0004551197133928925,,,,
2.476666666666667,-0.9595763247635216,-0.12606359398236497,36.86650140280355,0.001252843337274246,-0.006421389670459661,0.00023871376844495333,,,,
2.48,-0.9763472122843473,-0.12329308674118775,35.09307064176183,-0.00036380553949520283,-0.010842632163304921,-0.0017852209633512487,92898.51913661485,,,
2.4833333333333334,-0.9751724763642691,-0.13060585482416973,34.2969350226229,-0.0012234464529368096,-0.008706971446436732,-0.0013071455180496594,,,,
2.486666666666667,-0.9786240497778481,-0.13778574815019207,33.78925300600179,0.0020984022699564488,-0.00627880502091639,0.001192243460728061,,,,
2.49,-0.9784108227829592,-0.13407179305400713,33.27513989341722,-0.0018261428267243,-0.008291179943648534,-0.00029332229137859627,92867.58314627012,,,
2.4933333333333336,-0.9868351572341336,-0.1377296916302707,32.77785091420949,0.0007829991401927371,-0.005168247320117663,0.0009258888037868623,,,,
2.496666666666667,-0.994498890206871,-0.13473160162226397,32.27838808171253,0.0013130537085880374,-0.008375242004965673,-0.0007032175758365126,,,,
2.5,-0.9899718696370835,-0.13436833790923347,31.764595680831523,0.0030541018616222736,-0.008252493045273477,-0.0017822781021532637,92839.19067504609,33.49864657439812,-99.33773302344838,728.8735511953016
2.5033333333333334,-0.9896991092650491,-0.12957997427740842,31.49728178830288,0.001582159569002832,-0.007706132407539467,0.0016348663185051962,,,,
2.506666666666667,-0.9846161491231581,-0.12857085756526881,31.293821418517005,-0.0012213860039654635,-0.0052901038362981705,-0.0012899672765531586,,,,
2.5100000000000002,-0.9944818997124839,-0.12621527510240452,31.101907447969705,0.0015674580816502572,-0.006743658633619827,0.0014207136969262809,92814.00215782979,,,
2.5133333333333336,-0.9883960376862375,-0.13413122198904512,30.904451211017307,-0.0012518662448122945,-0.006119679260019906,0.0024583606674647264,,,,
2.5166666666666666,-0.9815605805868081,-0.13893527791184873,30.700009704997974,0.001954992948445819,-0.007137286436671858,-0.0014037574732516447,,,,
2.52,-0.9868790552577934,-0.13515434523736816,30.50633055342611,0.001597602127006473,-0.006287145624674806,0.0007125230701171252,92784.35574448595,,,
2.5233333333333334,-0.9834537707723509,-0.13649272306889568,30.354034136915267,-0.0015963341696924188,-0.006813623499587356,-0.0012106714799350459,,,,
2.526666666666667,-0.9868463321196501,-0.13492791092828307,30.21693996041149,0.0028960589358906605,-0.007649385566484233,-0.0009584218355135077,,,,
2.5300000000000002,-0.9900029266332484,-0.1419492971309404,30.090331114305368,-0.0011513458601666395,-0.009033237881483816,-0.0035902926926622927,92754.7233053757,,,
2.5333333333333337,-0.9788073728294584,-0.12806906239537424,29.957551030855363,0.0025029102892325933,-0.0053860672307845464,0.0007384542901350314,,,,
2.5366666666666666,-0.9704471570506397,-0.12665648213287203,29.81895158706035,-0.0023936958425199847,-0.0045826598751292705,-0.0020029604458900907,,,,
2.54,-0.9751845071827905,-0.13086823454338822,29.685520149619197,0.0014937105264477275,-0.006900162687203595,0.0009445058816225948,92724.25927077346,,,
2.5433333333333334,-0.9709469341235791,-0.14202203585534365,29.547603310717825,0.0008583022622054272,-0.007824722925540298,0.0013169716149298227,,,,
2.546666666666667,-0.9742938756902924,-0.13720165141008556,29.414789052580797,-0.0015308697833891947,-0.00800116160341206,0.002325321707539599,,,,
2.5500000000000003,-0.9645878823546897,-0.13891346057692863,29.285819479773405,0.0030570297263129934,-0.00658754180782416,-7.227566035992586e-05,92698.49652602631,,,
2.5533333333333337,-0.9615749316840829,-0.13509509180112958,29.137212104730885,0.0003316145021954963,-0.00582276124836292,-0.0022583365059668653,,,,
2.5566666666666666,-0.9643983527593994,-0.13068876121303113,28.991868343806566,1.4230417146433665e-05,-0.006034866555797073,3.999814415376412e-05,,,,
2.56,-0.9746108329906286,-0.13220918948757146,28.86477037450913,-0.0021931659197993924,-0.004494777827627965,-0.0010621021731282941,92669.02782295595,,,
2.5633333333333335,-0.9640732766327104,-0.12608982674918587,28.766510797570692,0.00149237943019543,-0.0024072389756484443,0.0022791634688088687,,,,
2.566666666666667,-0.9560385683924281,-0.13806428862477563,28.697045629090617,0.003350804393351627,-0.0028924400027782243,0.00043342786582158566,,,,
2.57,-0.9514491765766467,-0.12788965561886514,28.599596580706105,0.0017041174200704973,-0.003819025099338744,-0.002617671628928894,92641.28970975347,,,
2.5733333333333337,-0.9515884786564527,-0.14251457424357045,28.517291961694788,0.0001840748675649963,-0.007007980760518517,0.0017541941602750072,,,,
2.5766666666666667,-0.9511406964222039,-0.12720657570316837,28.431478982053658,0.002645507389631717,-0.008249205559264594,-0.0014201339278642304,,,,
2.58,-0.9482701669498768,-0.1398800232662011,28.347079941041816,0.003259560535958235,-0.003720973708011318,-0.0010263035980011186,92610.7790219117,,,
2.5833333333333335,-0.9528419415878352,-0.13310495655069893,28.22843145089477,0.0030735996532195746,-0.00421768910739234,-0.00022412360893906446,,,,
2.586666666666667,-0.9559230683110382,-0.13270017527796002,28.104534452494217,0.0001034725334348491,-0.005652117179077825,0.00115585435473797,,,,
2.59,-0.9499473890097485,-0.1280481659575387,27.974674793438822,-0.002220103416232573,-0.0016477085179993243,-0.0012623858417484428,92583.14376808194,,,
2.5933333333333337,-0.9428125819979939,-0.13442944756825698,27.848405339145067,-0.00017551751314361943,-0.005947788472871015,-0.0014352546791722438,,,,
2.5966666666666667,-0.9431371046372482,-0.13360074584628454,27.710711714150307,0.0022543490476478628,-0.006373471117341886,-0.0019279880685047263,,,,
2.6,-0.9447536345898233,-0.1339955444887137,27.583858240256937,0.0006715733357504644,-0.005586480345675024,-0.00030795061406555213,92554.3460233594,33.49864652935059,-99.33772093177262,759.6515852070924
2.6033333333333335,-0.9503252286291122,-0.14028557015903526,27.45179760737257,0.002573332731728096,-0.005214385118163665,0.0008584042165267995,,,,
2.606666666666667,-0.9428481951762632,-0.12919604246947594,27.32344775825471,0.0005173050370035741,-0.006720540961154049,0.0005051719757947881,,,,
2.61,-0.9498196459409839,-0.14167944361264592,27.184079611681938,0.002361399764615709,-0.0072803254220641465,-8.138311757715509e-05,92525.75058566345,,,
2.6133333333333333,-0.9387271799640917,-0.13488133344497888,27.05486061696575,0.003152767399217988,-0.00887611989241502,0.0013170464159892854,,,,
2.6166666666666667,-0.9492848848178984,-0.12712463162954274,26.9170302331233,0.0033260509778352274,-0.004439049840972138,0.001057271937144293,,,,
2.62,-0.9499008785037106,-0.1316716022150602,25.344859529432004,-0.00021427671265586727,-0.003953122946582472,0.0006746837406336165,92496.06918914936,,,
2.6233333333333335,-0.953667119592082,-0.13253412158750963,26.643031888564703,0.0010637253493275493,-0.00532194319255325,0.001764773646692948,,,,
2.626666666666667,-0.9505078442356025,-0.13475100085547287,26.525600360744818,0.0024435560148000778,-0.007342935021948818,0.0008492261557985379,,,,
2.63,-0.9649715090801897,-0.1183531572716408,26.39099409288643,0.0006762390123103736,-0.007479373407980253,-0.0009515966291277562,92464.80327653921,,,
2.6333333333333333,-0.9613832922060829,-0.13365522128752155,26.26326936028806,-0.0006058925222880032,-0.007115087299133405,-0.001293813539838143,,,,
2.6366666666666667,-0.9631354388725266,-0.1297249796202373,26.139453861687315,0.0009061509899810937,-0.004834186237631019,-0.0037201559043245603,,,,
2.64,-0.9607404517100906,-0.12564893782600117,26.009275487124132,-0.0002282674496073702,-0.010061698227277668,-0.0007946589409663204,92436.95592037599,,,
