time_s,accelerometer_x,accelerometer_y,accelerometer_z,gyroscope_x,gyroscope_y,gyroscope_z,barometer_v1,gnss_x,gnss_y,gnss_z
0.0,0.0,0.0,-9.7803253359,0.0,0.0,0.0,96454.37206994892,33.49862509998742,-99.33761247678022,416.5339367565666
0.01,0.0,0.0,16.57656439706455,0.0,0.0,0.0,,,,
0.02,0.0,0.0,30.07231743557528,0.0,0.0,0.0,96454.32146501262,,,
0.03,0.0,0.0,43.555811331468504,0.0,0.0,0.0,,,,
0.04,0.0,0.0,57.05217436515568,0.0,0.0,0.0,96454.08598437895,,,
0.05,0.0,0.0,68.5703777103867,0.0,0.0,0.0,,,,
0.06,0.0,0.0,80.08391167445237,0.0,0.0,0.0,96453.54321935105,,,
0.07,0.0,0.0,83.50555447398149,0.0,0.0,0.0,,,,
0.08,0.0,0.0,86.85008787869408,0.0,0.0,0.0,96452.59662512655,,,
0.09,0.0,0.0,86.28420324289962,0.0,0.0,0.0,,,,
0.1,0.0,0.0,85.67748699139202,0.0,0.0,0.0,96451.20807733986,33.49862509998744,-99.3376124767802,416.80685909379525
0.11,0.0,0.0,85.18166518666732,0.0,0.0,0.0,,,,
0.12,0.0,0.0,84.68582389865068,0.0,0.0,0.0,96449.37672386804,,,
0.13,0.0,0.0,84.40870267858112,0.0,0.0,0.0,,,,
0.14,0.0,0.0,84.13300154190576,0.0,0.0,0.0,96447.10700521982,,,
0.15,0.0,0.0,84.13161787475708,0.0,0.0,0.0,,,,
0.16,0.0,0.0,84.13272580493664,0.0,0.0,0.0,96444.40140404025,,,
0.17,0.0,0.0,84.25959818557637,0.0,0.0,0.0,,,,
0.18,0.0,0.0,84.38764554144996,0.0,0.0,0.0,96441.26017635365,,,
0.19,0.0,0.0,84.36948925902676,0.0,0.0,0.0,,,,
0.2,0.0,0.0,84.34953121973311,0.0,0.0,0.0,96437.68259093436,33.498625099987464,-99.3376124767802,417.9736041953206
0.21,0.0,0.0,84.380810898842,0.0,0.0,0.0,,,,
0.22,0.0,0.0,84.41248697307118,0.0,0.0,0.0,96433.66853838167,,,
0.23,0.0,0.0,84.45692831080525,0.0,0.0,0.0,,,,
0.24,0.0,0.0,84.50122982738931,0.0,0.0,0.0,96429.21781596835,,,
0.25,0.0,0.0,84.5427491082013,0.0,0.0,0.0,,,,
0.26,0.0,0.0,84.58403504042853,0.0,0.0,0.0,96424.33006792009,,,
0.27,0.0,0.0,84.72893998079596,0.0,0.0,0.0,,,,
0.28,0.0,0.0,84.87485970178822,0.0,0.0,0.0,96419.00478216515,,,
0.29,0.0,0.0,85.02714396570248,0.0,0.0,0.0,,,,
0.3,0.0,0.0,85.17936473498412,0.0,0.0,0.0,96413.2407983271,33.49862509998744,-99.33761247678021,420.08223514755474
0.31,0.0,0.0,85.32461799380366,0.0,0.0,0.0,,,,
0.32,0.0,0.0,85.46976174352332,0.0,0.0,0.0,96407.0367625941,,,
0.33,0.0,0.0,85.60605379565803,0.0,0.0,0.0,,,,
0.34,0.0,0.0,85.75316990226007,0.0,0.0,0.0,96400.3912539884,,,
0.35000000000000003,0.0,0.0,85.86310651712414,0.0,0.0,0.0,,,,
0.36,0.0,0.0,85.96998529415234,0.0,0.0,0.0,96393.30329165692,,,
0.37,0.0,0.0,86.09217042269016,0.0,0.0,0.0,,,,
0.38,0.0,0.0,86.21550072259195,0.0,0.0,0.0,96385.77172198711,,,
0.39,0.0,0.0,86.3634780049081,0.0,0.0,0.0,,,,
0.4,0.0,0.0,86.51328461765547,0.0,0.0,0.0,96377.795455924,33.49862509998744,-99.3376124767802,423.1406553380211
0.41000000000000003,0.0,0.0,86.84696176957488,0.0,0.0,0.0,,,,
0.42,0.0,0.0,87.19505478290503,0.0,0.0,0.0,96369.3729221232,,,
0.43,0.0,0.0,87.32822470449472,0.0,0.0,0.0,,,,
0.44,0.0,0.0,87.44493542727508,0.0,0.0,0.0,96360.50163527482,,,
0.45,0.0,0.0,87.61087932601643,0.0,0.0,0.0,,,,
0.46,0.0,0.0,87.78053974763567,0.0,0.0,0.0,96351.18009786602,,,
0.47000000000000003,0.0,0.0,87.89058900777034,0.0,0.0,0.0,,,,
0.48,0.0,0.0,87.99592096101537,0.0,0.0,0.0,96341.40699194935,,,
0.49,0.0,0.0,87.93509269082257,0.0,0.0,0.0,,,,
0.5,0.0,0.0,87.86102142662074,0.0,0.0,0.0,96331.18154268028,33.49862509998743,-99.3376124767802,427.1636626106203
0.51,0.0,0.0,88.06942977341744,0.0,0.0,0.0,,,,
0.52,0.0,0.0,88.29910785055365,0.0,0.0,0.0,96320.50377108352,,,
0.53,0.0,0.0,88.50608038174275,0.0,0.0,0.0,,,,
0.54,0.0,0.0,88.7112085004429,0.0,0.0,0.0,96309.37220103545,,,
0.55,0.0,0.0,88.95116442778394,0.0,0.0,0.0,,,,
0.56,0.0,0.0,89.19406346404804,0.0,0.0,0.0,96297.78493011702,,,
0.5700000000000001,0.0,0.0,89.39787252949397,0.0,0.0,0.0,,,,
0.58,0.0,0.0,89.59868818978683,0.0,0.0,0.0,96285.73991899485,,,
0.59,0.0,0.0,89.76244497801477,0.0,0.0,0.0,,,,
0.6,0.0,0.0,89.92316000365173,0.0,0.0,0.0,96273.23537786491,33.49862509998746,-99.3376124767802,432.16614013119266
0.61,0.0,0.0,90.06775043194274,0.0,0.0,0.0,,,,
0.62,0.0,0.0,90.21097102191688,0.0,0.0,0.0,96260.26987460832,,,
0.63,0.0,0.0,90.3926351011156,0.0,0.0,0.0,,,,
0.64,0.0,0.0,90.57723626065444,0.0,0.0,0.0,96246.8420992793,,,
0.65,0.0,0.0,90.83148495776325,0.0,0.0,0.0,,,,
0.66,0.0,0.0,91.09125189819508,0.0,0.0,0.0,96232.95040964475,,,
0.67,0.0,0.0,91.37917954310747,0.0,0.0,0.0,,,,
0.68,0.0,0.0,91.66912691512098,0.0,0.0,0.0,96218.59260352443,,,
0.6900000000000001,0.0,0.0,92.00227705007859,0.0,0.0,0.0,,,,
0.7000000000000001,0.0,0.0,92.33892415315657,0.0,0.0,0.0,96203.76609312769,33.49862509998744,-99.33761247678021,438.1655388062352
0.71,0.0,0.0,92.70572834394585,0.0,0.0,0.0,,,,
0.72,0.0,0.0,93.07499593983304,0.0,0.0,0.0,96188.46791804161,,,
0.73,0.0,0.0,93.46875252208966,0.0,0.0,0.0,,,,
0.74,0.0,0.0,93.86454681283352,0.0,0.0,0.0,96172.69480758379,,,
0.75,0.0,0.0,94.27834917373286,0.0,0.0,0.0,,,,
0.76,0.0,0.0,94.69375576772413,0.0,0.0,0.0,96156.44326487966,,,
0.77,0.0,0.0,95.10918112057742,0.0,0.0,0.0,,,,
0.78,0.0,0.0,95.52487995914277,0.0,0.0,0.0,96139.70959956516,,,
0.79,0.0,0.0,95.92099066607956,0.0,0.0,0.0,,,,
0.8,0.0,0.0,96.31595724046804,0.0,0.0,0.0,96122.49014197307,33.49862509998744,-99.33761247678018,445.18756372974633
0.81,0.0,0.0,96.66250555610254,0.0,0.0,0.0,,,,
0.8200000000000001,0.0,0.0,97.00479273973332,0.0,0.0,0.0,96104.78142832502,,,
0.8300000000000001,0.0,0.0,97.2956538847875,0.0,0.0,0.0,,,,
0.84,0.0,0.0,97.58250769783302,0.0,0.0,0.0,96086.58043036069,,,
0.85,0.0,0.0,97.8304951275021,0.0,0.0,0.0,,,,
0.86,0.0,0.0,98.07546836215548,0.0,0.0,0.0,96067.8846217611,,,
0.87,0.0,0.0,98.29501812198339,0.0,0.0,0.0,,,,
0.88,0.0,0.0,98.5124687015164,0.0,0.0,0.0,96048.69186960398,,,
0.89,0.0,0.0,98.73283507766463,0.0,0.0,0.0,,,,
0.9,0.0,0.0,98.95329083790367,0.0,0.0,0.0,96029.00028230998,33.49862509998745,-99.33761247678018,453.26890448880107
0.91,0.0,0.0,99.18270555833372,0.0,0.0,0.0,,,,
0.92,0.0,0.0,99.4127258758322,0.0,0.0,0.0,96008.80799237269,,,
0.93,0.0,0.0,99.62826837251508,0.0,0.0,0.0,,,,
0.9400000000000001,0.0,0.0,99.8432240777485,0.0,0.0,0.0,95988.1130998207,,,
0.9500000000000001,0.0,0.0,100.03168690881623,0.0,0.0,0.0,,,,
0.96,0.0,0.0,100.21676028782205,0.0,0.0,0.0,95966.91382757257,,,
0.97,0.0,0.0,100.36052299571162,0.0,0.0,0.0,,,,
0.98,0.0,0.0,100.50113911734125,0.0,0.0,0.0,95945.20867380068,,,
0.99,0.0,0.0,100.58479142006998,0.0,0.0,0.0,,,,
1.0,0.0,0.0,100.66361586576697,0.0,0.0,0.0,95922.99655559058,33.49862509998744,-99.33761247678021,462.43732218967216
1.01,0.0,0.0,100.71383866355762,0.0,0.0,0.0,,,,
1.02,0.0,0.0,100.76124306992558,0.0,0.0,0.0,95900.27689512711,,,
1.03,0.0,0.0,100.80927451548703,0.0,0.0,0.0,,,,
1.04,0.0,0.0,100.85705145769595,0.0,0.0,0.0,95877.04941698418,,,
1.05,0.0,0.0,100.92487755591452,0.0,0.0,0.0,,,,
1.06,0.0,0.0,100.99392373342432,0.0,0.0,0.0,95853.31387736081,,,
1.07,0.0,0.0,101.10133432205006,0.0,0.0,0.0,,,,
1.08,0.0,0.0,101.21149352416812,0.0,0.0,0.0,95829.06985246505,,,
1.09,0.0,0.0,101.33368931127343,0.0,0.0,0.0,,,,
1.1,0.0,0.0,101.45690658748839,0.0,0.0,0.0,95804.31661930776,33.49862509998744,-99.33761247678021,472.70904247640317
1.11,0.0,0.0,101.5632354184648,0.0,0.0,0.0,,,,
1.12,0.0,0.0,101.66790260741561,0.0,0.0,0.0,95779.05333987833,,,
1.1300000000000001,0.0,0.0,101.75683147216263,0.0,0.0,0.0,,,,
1.1400000000000001,0.0,0.0,101.84430650763116,0.0,0.0,0.0,95753.27928901422,,,
1.1500000000000001,0.0,0.0,101.92018148237433,0.0,0.0,0.0,,,,
1.16,0.0,0.0,101.99480585649809,0.0,0.0,0.0,95726.99391576811,,,
1.17,0.0,0.0,102.07180310839696,0.0,0.0,0.0,,,,
1.18,0.0,0.0,102.14770061549991,0.0,0.0,0.0,95700.1967787647,,,
1.19,0.0,0.0,102.23168579849941,0.0,0.0,0.0,,,,
1.2,0.0,0.0,102.31594280244546,0.0,0.0,0.0,95672.88744525478,33.498625099987436,-99.3376124767802,484.09294340000497
1.21,0.0,0.0,102.40183160051708,0.0,0.0,0.0,,,,
1.22,0.0,0.0,102.48893459463835,0.0,0.0,0.0,95645.06543370687,,,
1.23,0.0,0.0,102.56776616428486,0.0,0.0,0.0,,,,
1.24,0.0,0.0,102.64250815682115,0.0,0.0,0.0,95616.73025959692,,,
1.25,0.0,0.0,102.70144313636634,0.0,0.0,0.0,,,,
1.26,0.0,0.0,102.75966831105984,0.0,0.0,0.0,95587.881529821,,,
1.27,0.0,0.0,102.80905726234774,0.0,0.0,0.0,,,,
1.28,0.0,0.0,102.85735595873209,0.0,0.0,0.0,95558.5190093613,,,
1.29,0.0,0.0,102.90681784796881,0.0,0.0,0.0,,,,
1.3,0.0,0.0,102.95616163169903,0.0,0.0,0.0,95528.64255217009,33.498625099987436,-99.33761247678018,496.59774396901054
1.31,0.0,0.0,103.02637989957451,0.0,0.0,0.0,,,,
1.32,0.0,0.0,103.0978839461792,0.0,0.0,0.0,95498.25200265925,,,
1.33,0.0,0.0,103.19544530823691,0.0,0.0,0.0,,,,
1.34,0.0,0.0,103.29466811833002,0.0,0.0,0.0,95467.34703386376,,,
1.35,0.0,0.0,103.41058437681262,0.0,0.0,0.0,,,,
1.36,0.0,0.0,103.52750173572909,0.0,0.0,0.0,95435.92710374875,,,
1.37,0.0,0.0,103.6657618615456,0.0,0.0,0.0,,,,
1.3800000000000001,0.0,0.0,103.80449982432545,0.0,0.0,0.0,95403.99149568292,,,
1.3900000000000001,0.0,0.0,103.97807028792121,0.0,0.0,0.0,,,,
1.4000000000000001,0.0,0.0,104.15411917792638,0.0,0.0,0.0,95371.53927828802,33.498625099987436,-99.33761247678018,510.2305446042181
1.41,0.0,0.0,104.36874932814817,0.0,0.0,0.0,,,,
1.42,0.0,0.0,104.5869339357142,0.0,0.0,0.0,95338.5692204151,,,
1.43,0.0,0.0,104.7504376734117,0.0,0.0,0.0,,,,
1.44,0.0,0.0,104.909245847048,0.0,0.0,0.0,95305.079839216,,,
1.45,0.0,0.0,104.98693163802332,0.0,0.0,0.0,,,,
1.46,0.0,0.0,105.05675169971435,0.0,0.0,0.0,95271.0701021506,,,
1.47,0.0,0.0,105.03168594707361,0.0,0.0,0.0,,,,
1.48,0.0,0.0,104.99844559207492,0.0,0.0,0.0,95236.53976468249,,,
1.49,0.0,0.0,104.90262162180908,0.0,0.0,0.0,,,,
1.5,0.0,0.0,104.80379062067006,0.0,0.0,0.0,95201.4894584292,33.49862509998745,-99.33761247678021,525.0028885066124
1.51,0.0,0.0,104.73991032437988,0.0,0.0,0.0,,,,
1.52,0.0,0.0,104.6783555256943,0.0,0.0,0.0,95165.92035881862,,,
1.53,0.0,0.0,104.66315740790084,0.0,0.0,0.0,,,,
1.54,0.0,0.0,104.6512573314199,0.0,0.0,0.0,95129.8334622394,,,
1.55,0.0,0.0,104.65291676128017,0.0,0.0,0.0,,,,
1.56,0.0,0.0,104.6539481092329,0.0,0.0,0.0,95093.22939243527,,,
1.57,0.0,0.0,104.62019659653791,0.0,0.0,0.0,,,,
1.58,0.0,0.0,104.58310300357132,0.0,0.0,0.0,95056.10867048491,,,
1.59,0.0,0.0,104.49346822001668,0.0,0.0,0.0,,,,
1.6,0.0,0.0,104.39869856033114,0.0,0.0,0.0,95018.47212185984,33.49862509998744,-99.33761247678018,540.9210292855007
1.61,0.0,0.0,104.24068432762773,0.0,0.0,0.0,,,,
1.62,0.0,0.0,104.07684213340332,0.0,0.0,0.0,94980.32108394349,,,
1.6300000000000001,0.0,0.0,103.87797060084158,0.0,0.0,0.0,,,,
1.6400000000000001,0.0,0.0,103.67775972711736,0.0,0.0,0.0,94941.65748665953,,,
1.6500000000000001,0.0,0.0,103.4846901554249,0.0,0.0,0.0,,,,
1.6600000000000001,0.0,0.0,103.29137102470763,0.0,0.0,0.0,94902.48360056539,,,
1.67,0.0,0.0,103.11519255624063,0.0,0.0,0.0,,,,
1.68,0.0,0.0,102.93795371717378,0.0,0.0,0.0,94862.80169647846,,,
1.69,0.0,0.0,102.77137242689419,0.0,0.0,0.0,,,,
1.7,0.0,0.0,102.60501790205706,0.0,0.0,0.0,94822.61392247093,33.49862509998744,-99.33761247678021,557.978941649461
1.71,0.0,0.0,102.44140168186806,0.0,0.0,0.0,,,,
1.72,0.0,0.0,102.27755676366762,0.0,0.0,0.0,94781.92235388207,,,
1.73,0.0,0.0,102.11911355954426,0.0,0.0,0.0,,,,
1.74,0.0,0.0,101.9603642445707,0.0,0.0,0.0,94740.72901844436,,,
1.75,0.0,0.0,101.82092806705316,0.0,0.0,0.0,,,,
1.76,0.0,0.0,101.68041890992733,0.0,0.0,0.0,94699.0359098602,,,
1.77,0.0,0.0,101.56154610703112,0.0,0.0,0.0,,,,
1.78,0.0,0.0,101.44805375695204,0.0,0.0,0.0,94656.84486641413,,,
1.79,0.0,0.0,101.35094940482908,0.0,0.0,0.0,,,,
1.8,0.0,0.0,101.25651560256088,0.0,0.0,0.0,94614.15753428248,33.49862509998745,-99.33761247678018,576.1610402486721
1.81,0.0,0.0,101.14811028497796,0.0,0.0,0.0,,,,
1.82,0.0,0.0,101.03788832392931,0.0,0.0,0.0,94570.97542179505,,,
1.83,0.0,0.0,100.8842398037985,0.0,0.0,0.0,,,,
1.84,0.0,0.0,100.72655284394021,0.0,0.0,0.0,94527.3001704483,,,
1.85,0.0,0.0,100.50092400958168,0.0,0.0,0.0,,,,
1.86,0.0,0.0,100.26904649058206,0.0,0.0,0.0,94483.1338519874,,,
1.87,0.0,0.0,99.97988932451545,0.0,0.0,0.0,,,,
1.8800000000000001,0.0,0.0,99.68520142855489,0.0,0.0,0.0,94438.47915492636,,,
1.8900000000000001,0.0,0.0,99.3609268920116,0.0,0.0,0.0,,,,
1.9000000000000001,0.0,0.0,99.03337142358757,0.0,0.0,0.0,94393.3393382941,33.49862509998745,-99.33761247678018,595.4528346347502
1.9100000000000001,0.0,0.0,98.68783572888817,0.0,0.0,0.0,,,,
1.92,0.0,0.0,98.33986942590101,0.0,0.0,0.0,94347.71800927889,,,
1.93,0.0,0.0,98.01449718961665,0.0,0.0,0.0,,,,
1.94,0.0,0.0,97.69015431677795,0.0,0.0,0.0,94301.61892568367,,,
1.95,0.0,0.0,97.36849732633542,0.0,0.0,0.0,,,,
1.96,0.0,0.0,97.04526622474907,0.0,0.0,0.0,94255.04575302424,,,
1.97,0.0,0.0,96.68900762705249,0.0,0.0,0.0,,,,
1.98,0.0,0.0,96.3291299881003,0.0,0.0,0.0,94208.00213408304,,,
1.99,0.0,0.0,95.94992368422905,0.0,0.0,0.0,,,,
2.0,0.0,0.0,95.56973864006173,0.0,0.0,0.0,94160.4920148933,33.49862509998744,-99.33761247678018,615.8319807203034
2.0100000000000002,0.0,0.0,95.16810069388244,0.0,0.0,0.0,,,,
2.02,0.0,0.0,94.76387941090056,0.0,0.0,0.0,94112.51955200359,,,
2.0300000000000002,0.0,0.0,94.32537035959554,0.0,0.0,0.0,,,,
2.04,0.0,0.0,93.88775029510461,0.0,0.0,0.0,94064.08912149425,,,
2.05,0.0,0.0,93.36239003379774,0.0,0.0,0.0,,,,
2.06,0.0,0.0,92.82768903703077,0.0,0.0,0.0,94015.20553467955,,,
2.07,0.0,0.0,92.19440780641634,0.0,0.0,0.0,,,,
2.08,0.0,0.0,91.55641816108898,0.0,0.0,0.0,93965.87434660144,,,
2.09,0.0,0.0,90.8594407974535,0.0,0.0,0.0,,,,
2.1,0.0,0.0,90.15420675812167,0.0,0.0,0.0,93916.10200343403,33.49862509998744,-99.33761247678018,637.2631876159644
2.11,0.0,0.0,89.4254501808676,0.0,0.0,0.0,,,,
2.12,0.0,0.0,88.6943076078015,0.0,0.0,0.0,93865.89558896793,,,
2.13,0.0,0.0,87.97607780041234,0.0,0.0,0.0,,,,
2.14,0.0,0.0,87.25896094272235,0.0,0.0,0.0,93815.26241225042,,,
2.15,0.0,0.0,86.605525151582,0.0,0.0,0.0,,,,
2.16,0.0,0.0,85.95612705337894,0.0,0.0,0.0,93764.20963187392,,,
2.17,0.0,0.0,85.33581302647754,0.0,0.0,0.0,,,,
2.18,0.0,0.0,84.71706742986025,0.0,0.0,0.0,93712.74399172387,,,
2.19,0.0,0.0,84.1085024116004,0.0,0.0,0.0,,,,
2.2,0.0,0.0,83.49795366705354,0.0,0.0,0.0,93660.87193233927,33.498625099987436,-99.3376124767802,659.692599155857
2.21,0.0,0.0,82.91025733435778,0.0,0.0,0.0,,,,
2.22,0.0,0.0,82.32365214368482,0.0,0.0,0.0,93608.59967786726,,,
2.23,0.0,0.0,81.74370769320053,0.0,0.0,0.0,,,,
2.24,0.0,0.0,81.16717857109232,0.0,0.0,0.0,93555.93337133422,,,
2.25,0.0,0.0,80.60582748813276,0.0,0.0,0.0,,,,
2.2600000000000002,0.0,0.0,80.04508229853222,0.0,0.0,0.0,93502.87903682349,,,
2.27,0.0,0.0,79.5432345464544,0.0,0.0,0.0,,,,
2.2800000000000002,0.0,0.0,79.04570790740839,0.0,0.0,0.0,93449.44242483497,,,
2.29,0.0,0.0,78.60358231786752,0.0,0.0,0.0,,,,
2.3000000000000003,0.0,0.0,78.16547686559245,0.0,0.0,0.0,93395.62886766886,33.49862509998743,-99.3376124767802,683.0556554500505
2.31,0.0,0.0,77.67762888548243,0.0,0.0,0.0,,,,
2.32,0.0,0.0,77.18347018137122,0.0,0.0,0.0,93341.44330461184,,,
2.33,0.0,0.0,76.5546994519037,0.0,0.0,0.0,,,,
2.34,0.0,0.0,75.91840462262331,0.0,0.0,0.0,93286.8911013414,,,
2.35,0.0,0.0,75.2812647267441,0.0,0.0,0.0,,,,
2.36,0.0,0.0,74.64128668164527,0.0,0.0,0.0,93231.97859746676,,,
2.37,0.0,0.0,75.76510446106272,0.0,0.0,0.0,,,,
2.38,0.0,0.0,77.03604555668457,0.0,0.0,0.0,93176.70958621755,,,
2.39,0.0,0.0,76.939174681477,0.0,0.0,0.0,,,,
2.4,0.0,0.0,76.7278584649178,0.0,0.0,0.0,93121.07888113908,33.49862509998744,-99.33761247678018,707.2986099126558
2.41,0.0,0.0,73.0328998388207,0.0,0.0,0.0,,,,
2.42,0.0,0.0,69.04591202994614,0.0,0.0,0.0,93065.09161505318,,,
2.43,0.0,0.0,64.31463705378034,0.0,0.0,0.0,,,,
2.44,0.0,0.0,59.51994662806614,0.0,0.0,0.0,93008.77938563001,,,
2.45,0.0,0.0,52.771599129220455,0.0,0.0,0.0,,,,
2.46,0.0,0.0,45.85996093616926,0.0,0.0,0.0,92952.18814591462,,,
2.47,0.0,0.0,40.408342385391116,0.0,0.0,0.0,,,,
2.48,0.0,0.0,35.07978322411288,0.0,0.0,0.0,92895.37468588521,,,
2.49,0.0,0.0,33.270571646780674,0.0,0.0,0.0,,,,
2.5,0.0,0.0,31.755625804152608,0.0,0.0,0.0,92838.38556118307,33.49862509998744,-99.3376124767802,732.3273178694442
2.5100000000000002,0.0,0.0,31.084367698353084,0.0,0.0,0.0,,,,
2.52,0.0,0.0,30.49060087948415,0.0,0.0,0.0,92781.24033404049,,,
2.5300000000000002,0.0,0.0,30.0764121721105,0.0,0.0,0.0,,,,
2.54,0.0,0.0,29.6735098616817,0.0,0.0,0.0,92723.94614201508,,,
2.5500000000000003,0.0,0.0,29.26416492576928,0.0,0.0,0.0,,,,
2.56,0.0,0.0,28.856805139869365,0.0,0.0,0.0,92666.50748650562,,,
2.57,0.0,0.0,28.589571910592973,0.0,0.0,0.0,,,,
2.58,0.0,0.0,28.33407844846733,0.0,0.0,0.0,92608.9283657378,,,
2.59,0.0,0.0,27.96100747703869,0.0,0.0,0.0,,,,
2.6,0.0,0.0,27.578884246336727,0.0,0.0,0.0,92551.21205800431,33.49862509998745,-99.3376124767802,757.8250041541031
2.61,0.0,0.0,27.173728452726486,0.0,0.0,0.0,,,,
2.62,0.0,0.0,25.326162645390667,0.0,0.0,0.0,92493.36242113989,,,
2.63,0.0,0.0,26.383962340129408,0.0,0.0,0.0,,,,
2.64,0.0,0.0,26.001845514219205,0.0,0.0,0.0,92435.38499099729,,,
2.65,0.0,0.0,25.62395866211289,0.0,0.0,0.0,,,,
2.66,0.0,0.0,25.246605984590182,0.0,0.0,0.0,92377.28235974425,,,
2.67,0.0,0.0,24.91692905632599,0.0,0.0,0.0,,,,
2.68,0.0,0.0,24.591320998897586,0.0,0.0,0.0,92319.05832074836,,,
2.69,0.0,0.0,24.293023000305247,0.0,0.0,0.0,,,,
2.7,0.0,0.0,23.997091957442166,0.0,0.0,0.0,92260.7163686569,33.49862509998745,-99.33761247678022,783.6950711926978
2.71,0.0,0.0,23.70401501329151,0.0,0.0,0.0,,,,
2.72,0.0,0.0,23.41125753997025,0.0,0.0,0.0,92202.25974411353,,,
2.73,0.0,0.0,23.115675627762734,0.0,0.0,0.0,,,,
2.74,0.0,0.0,22.819591599045587,0.0,0.0,0.0,92143.6916054134,,,
2.75,0.0,0.0,22.532692817392395,0.0,0.0,0.0,,,,
2.7600000000000002,0.0,0.0,22.246646265374814,0.0,0.0,0.0,92085.01511621823,,,
2.77,0.0,0.0,21.959581564214396,0.0,0.0,0.0,,,,
2.7800000000000002,0.0,0.0,21.672543632822098,0.0,0.0,0.0,92026.23339561092,,,
2.79,0.0,0.0,21.41123295111739,0.0,0.0,0.0,,,,
2.8000000000000003,0.0,0.0,21.1521704799653,0.0,0.0,0.0,91967.34949571684,33.49862509998744,-99.33761247678018,809.9032958584849
2.81,0.0,0.0,20.914943770828778,0.0,0.0,0.0,,,,
2.82,0.0,0.0,20.679633194624948,0.0,0.0,0.0,91908.36614743932,,,
2.83,0.0,0.0,20.441804913543635,0.0,0.0,0.0,,,,
2.84,0.0,0.0,20.203048363955993,0.0,0.0,0.0,91849.28570268319,,,
2.85,0.0,0.0,19.99548118116119,0.0,0.0,0.0,,,,
2.86,0.0,0.0,19.790858937178122,0.0,0.0,0.0,91790.11042278189,,,
2.87,0.0,0.0,19.577946874155863,0.0,0.0,0.0,,,,
2.88,0.0,0.0,19.36443623027077,0.0,0.0,0.0,91730.84179371258,,,
2.89,0.0,0.0,19.103911810674468,0.0,0.0,0.0,,,,
2.9,0.0,0.0,18.84425024860962,0.0,0.0,0.0,91671.48314852323,33.49862509998743,-99.3376124767802,836.4216136234378
2.91,0.0,0.0,18.580302188615967,0.0,0.0,0.0,,,,
2.92,0.0,0.0,18.31589779654847,0.0,0.0,0.0,91612.0362929277,,,
2.93,0.0,0.0,18.028493286995555,0.0,0.0,0.0,,,,
2.94,0.0,0.0,17.73926827253394,0.0,0.0,0.0,91552.50378392186,,,
2.95,0.0,0.0,17.42330969850189,0.0,0.0,0.0,,,,
2.96,0.0,0.0,17.10524100914577,0.0,0.0,0.0,91492.88835133267,,,
2.97,0.0,0.0,16.787686510163176,0.0,0.0,0.0,,,,
2.98,0.0,0.0,16.46871796379812,0.0,0.0,0.0,91433.19292629922,,,
2.99,0.0,0.0,16.135015600376164,0.0,0.0,0.0,,,,
3.0,0.0,0.0,15.800470487238597,0.0,0.0,0.0,91373.42051554461,33.49862509998746,-99.33761247678021,863.2253520710834
3.0100000000000002,0.0,0.0,15.469107125920369,0.0,0.0,0.0,,,,
3.02,0.0,0.0,15.13820890803082,0.0,0.0,0.0,91313.5741982373,,,
3.0300000000000002,0.0,0.0,14.81648760112269,0.0,0.0,0.0,,,,
3.04,0.0,0.0,14.495731104909572,0.0,0.0,0.0,91253.65704459506,,,
3.0500000000000003,0.0,0.0,14.19518050767949,0.0,0.0,0.0,,,,
3.06,0.0,0.0,13.896516698502305,0.0,0.0,0.0,91193.67201067672,,,
3.0700000000000003,0.0,0.0,13.59898643587554,0.0,0.0,0.0,,,,
3.08,0.0,0.0,13.301735689204223,0.0,0.0,0.0,91133.62190366031,,,
3.09,0.0,0.0,13.008801510147181,0.0,0.0,0.0,,,,
3.1,0.0,0.0,12.716420715338069,0.0,0.0,0.0,91073.50946633668,33.49862509998744,-99.33761247678018,890.2849382962593
3.11,0.0,0.0,12.463734127269342,0.0,0.0,0.0,,,,
3.12,0.0,0.0,12.214569592097602,0.0,0.0,0.0,91013.33735635121,,,
3.13,0.0,0.0,12.008647903427581,0.0,0.0,0.0,,,,
3.14,0.0,0.0,11.806518365472963,0.0,0.0,0.0,90953.10789282415,,,
3.15,0.0,0.0,11.618957670388257,0.0,0.0,0.0,,,,
3.16,0.0,0.0,11.432743604523496,0.0,0.0,0.0,90892.82301061523,,,
3.17,0.0,0.0,11.244973180744681,0.0,0.0,0.0,,,,
3.18,0.0,0.0,11.057195865373183,0.0,0.0,0.0,90832.48449161979,,,
3.19,0.0,0.0,10.836733986514075,0.0,0.0,0.0,,,,
3.2,0.0,0.0,10.61365787448313,0.0,0.0,0.0,90772.09413324123,33.49862509998744,-99.33761247678018,917.5707104986486
3.21,0.0,0.0,10.338022666110783,0.0,0.0,0.0,,,,
3.22,0.0,0.0,10.058135660056225,0.0,0.0,0.0,90711.65401182312,,,
3.23,0.0,0.0,9.6825518557256,0.0,0.0,0.0,,,,
3.24,0.0,0.0,9.299136725842795,0.0,0.0,0.0,90651.1667237355,,,
3.25,0.0,0.0,8.796407333103867,0.0,0.0,0.0,,,,
3.2600000000000002,0.0,0.0,8.283964062205714,0.0,0.0,0.0,90590.63569659868,,,
3.27,0.0,0.0,7.739122566543683,0.0,0.0,0.0,,,,
3.2800000000000002,0.0,0.0,7.191526064877481,0.0,0.0,0.0,90530.0653894813,,,
3.29,0.0,0.0,6.601372525001805,0.0,0.0,0.0,,,,
3.3000000000000003,0.0,0.0,6.0081061158148295,0.0,0.0,0.0,90469.46067690464,33.498625099987436,-99.33761247678021,945.0578517167012
3.31,0.0,0.0,5.3918774356475225,0.0,0.0,0.0,,,,
3.3200000000000003,0.0,0.0,4.7742409508849555,0.0,0.0,0.0,90408.8267466776,,,
3.33,0.0,0.0,4.091903150865203,0.0,0.0,0.0,,,,
3.34,0.0,0.0,3.404704394380083,0.0,0.0,0.0,90348.16911787489,,,
3.35,0.0,0.0,2.508543310233316,0.0,0.0,0.0,,,,
3.36,0.0,0.0,1.5954831829568654,0.0,0.0,0.0,90287.49407928623,,,
3.37,0.0,0.0,0.44654473945607087,0.0,0.0,0.0,,,,
3.38,0.0,0.0,-0.7213192470331666,0.0,0.0,0.0,90226.8096195118,,,
3.39,0.0,0.0,-2.117694152096365,0.0,0.0,0.0,,,,
3.4,0.0,0.0,-3.532077126042039,0.0,0.0,0.0,90166.12582030163,33.49862509998744,-99.3376124767802,972.7001359051961
3.41,0.0,0.0,-5.045124713215437,0.0,0.0,0.0,,,,
3.42,0.0,0.0,-6.564997255887044,0.0,0.0,0.0,90105.45486121894,,,
3.43,0.0,0.0,-8.020017536120006,0.0,0.0,0.0,,,,
3.44,0.0,0.0,-9.4679923222262,0.0,0.0,0.0,90044.80972857462,,,
3.45,0.0,0.0,-10.764243213515558,0.0,0.0,0.0,,,,
3.46,0.0,0.0,-12.046175864300238,0.0,0.0,0.0,89984.20288224127,,,
3.47,0.0,0.0,-13.16500403601226,0.0,0.0,0.0,,,,
3.48,0.0,0.0,-14.268719236378173,0.0,0.0,0.0,89923.64552406665,,,
3.49,0.0,0.0,-15.224183152830303,0.0,0.0,0.0,,,,
3.5,0.0,0.0,-16.165954283562833,0.0,0.0,0.0,89863.14722578882,33.49862509998744,-99.3376124767802,1000.4011537296694
3.5100000000000002,0.0,0.0,-17.043540074377766,0.0,0.0,0.0,,,,
3.52,0.0,0.0,-17.91464378083679,0.0,0.0,0.0,89802.7162606716,,,
3.5300000000000002,0.0,0.0,-18.760100286083667,0.0,0.0,0.0,,,,
3.54,0.0,0.0,-19.602369760489168,0.0,0.0,0.0,89742.36023306563,,,
3.5500000000000003,0.0,0.0,-20.37146810203619,0.0,0.0,0.0,,,,
3.56,0.0,0.0,-21.133429360288446,0.0,0.0,0.0,89682.08617439993,,,
3.5700000000000003,0.0,0.0,-21.90173190581707,0.0,0.0,0.0,,,,
3.58,0.0,0.0,-22.669637046807377,0.0,0.0,0.0,89621.90072090247,,,
3.59,0.0,0.0,-23.157429129481265,0.0,0.0,0.0,,,,
3.6,0.0,0.0,-23.62084283345382,0.0,0.0,0.0,89561.80996415888,33.49862509998745,-99.33761247678021,1028.042310444262
3.61,0.0,0.0,-24.08420744388785,0.0,0.0,0.0,,,,
3.62,0.0,0.0,-24.547004123065793,0.0,0.0,0.0,89501.81823778819,,,
3.63,0.0,0.0,-25.195278780711362,0.0,0.0,0.0,,,,
3.64,0.0,0.0,-25.85849936075818,0.0,0.0,0.0,89441.92961904818,,,
3.65,0.0,0.0,-26.487970183676808,0.0,0.0,0.0,,,,
3.66,0.0,0.0,-27.113789361640592,0.0,0.0,0.0,89382.14928423666,,,
3.67,0.0,0.0,-27.968693306594638,0.0,0.0,0.0,,,,
3.68,0.0,0.0,-28.842105944782546,0.0,0.0,0.0,89322.48281584139,,,
3.69,0.0,0.0,-29.626714398501754,0.0,0.0,0.0,,,,
3.7,0.0,0.0,-30.40279359009707,0.0,0.0,0.0,89262.93703433983,33.498625099987436,-99.33761247678021,1055.5460580032652
3.71,0.0,0.0,-30.903100599793433,0.0,0.0,0.0,,,,
3.72,0.0,0.0,-31.37936932536934,0.0,0.0,0.0,89203.51819774232,,,
3.73,0.0,0.0,-31.77947716453763,0.0,0.0,0.0,,,,
3.74,0.0,0.0,-32.17263303760458,0.0,0.0,0.0,89144.23058312431,,,
3.75,0.0,0.0,-32.49597837650192,0.0,0.0,0.0,,,,
3.7600000000000002,0.0,0.0,-32.81301344590318,0.0,0.0,0.0,89085.07731543726,,,
3.77,0.0,0.0,-33.06525724762629,0.0,0.0,0.0,,,,
3.7800000000000002,0.0,0.0,-33.3117150761071,0.0,0.0,0.0,89026.06091939904,,,
3.79,0.0,0.0,-33.50519353680681,0.0,0.0,0.0,,,,
3.8000000000000003,0.0,0.0,-33.69396849174074,0.0,0.0,0.0,88967.18328790828,33.49862509998744,-99.33761247678021,1082.8494282579445
3.81,0.0,0.0,-33.81738956696278,0.0,0.0,0.0,,,,
3.8200000000000003,0.0,0.0,-33.93515017738648,0.0,0.0,0.0,88908.44576391959,,,
3.83,0.0,0.0,-34.00370797849402,0.0,0.0,0.0,,,,
3.84,0.0,0.0,-34.06805825044817,0.0,0.0,0.0,88849.84913137386,,,
3.85,0.0,0.0,-34.103489457616604,0.0,0.0,0.0,,,,
3.86,0.0,0.0,-34.13647861683101,0.0,0.0,0.0,88791.39371527881,,,
3.87,0.0,0.0,-34.183270022305955,0.0,0.0,0.0,,,,
3.88,0.0,0.0,-34.23123460781163,0.0,0.0,0.0,88733.07958272903,,,
3.89,0.0,0.0,-34.28297108419257,0.0,0.0,0.0,,,,
3.9,0.0,0.0,-34.33502329957127,0.0,0.0,0.0,88674.90684450118,33.498625099987436,-99.3376124767802,1109.916231040727
3.91,0.0,0.0,-34.665821441196655,0.0,0.0,0.0,,,,
3.92,0.0,0.0,-34.62835404212505,0.0,0.0,0.0,88616.8762299403,,,
3.93,0.0,0.0,-34.59100536838979,0.0,0.0,0.0,,,,
3.94,0.0,0.0,-34.55377491246528,0.0,0.0,0.0,88558.98814679896,,,
3.95,0.0,0.0,-34.516662162649894,0.0,0.0,0.0,,,,
3.96,0.0,0.0,-34.479666613069654,0.0,0.0,0.0,88501.24199266956,,,
3.97,0.0,0.0,-34.442787760647555,0.0,0.0,0.0,,,,
3.98,0.0,0.0,-34.40602510508166,0.0,0.0,0.0,88443.63716591916,,,
3.99,0.0,0.0,-34.36937814883558,0.0,0.0,0.0,,,,
4.0,0.0,0.0,-34.33284639711112,0.0,0.0,0.0,88386.17306975073,33.498625099987436,-99.3376124767802,1136.7371314476711
4.01,0.0,0.0,-34.29642935782936,0.0,0.0,0.0,,,,
4.0200000000000005,0.0,0.0,-34.26012654162036,0.0,0.0,0.0,88328.8491114333,,,
4.03,0.0,0.0,-34.22226671419557,0.0,0.0,0.0,,,,
4.04,0.0,0.0,-34.18442090605377,0.0,0.0,0.0,88271.66469997431,,,
4.05,0.0,0.0,-34.146700293939055,0.0,0.0,0.0,,,,
4.0600000000000005,0.0,0.0,-34.109104314907086,0.0,0.0,0.0,88214.61923822243,,,
4.07,0.0,0.0,-34.07279042056567,0.0,0.0,0.0,,,,
4.08,0.0,0.0,-34.037188428426845,0.0,0.0,0.0,88157.7121315139,,,
4.09,0.0,0.0,-34.00169719991295,0.0,0.0,0.0,,,,
4.1,0.0,0.0,-33.96631626634119,0.0,0.0,0.0,88100.94280002004,33.498625099987436,-99.3376124767802,1163.312510414527
4.11,0.0,0.0,-33.931045162465864,0.0,0.0,0.0,,,,
4.12,0.0,0.0,-33.8958834255644,0.0,0.0,0.0,88044.31067071708,,,
4.13,0.0,0.0,-33.859259998358084,0.0,0.0,0.0,,,,
4.14,0.0,0.0,-33.82260701334385,0.0,0.0,0.0,87987.8151726708,,,
4.15,0.0,0.0,-33.78607388942424,0.0,0.0,0.0,,,,
4.16,0.0,0.0,-33.74966009427082,0.0,0.0,0.0,87931.45572905174,,,
4.17,0.0,0.0,-33.71433506460716,0.0,0.0,0.0,,,,
4.18,0.0,0.0,-33.679844785859196,0.0,0.0,0.0,87875.23176519413,,,
4.19,0.0,0.0,-33.64546060051809,0.0,0.0,0.0,,,,
4.2,0.0,0.0,-33.61118206554213,0.0,0.0,0.0,87819.14272011499,33.49862509998744,-99.3376124767802,1189.6460257728575
4.21,0.0,0.0,-33.57700874076297,0.0,0.0,0.0,,,,
4.22,0.0,0.0,-33.54294018837273,0.0,0.0,0.0,87763.18804014334,,,
4.23,0.0,0.0,-33.50774427471803,0.0,0.0,0.0,,,,
4.24,0.0,0.0,-33.47223315650644,0.0,0.0,0.0,87707.36717398632,,,
4.25,0.0,0.0,-33.43683685568568,0.0,0.0,0.0,,,,
4.26,0.0,0.0,-33.40155486862477,0.0,0.0,0.0,87651.67956484575,,,
4.2700000000000005,0.0,0.0,-33.36693848156692,0.0,0.0,0.0,,,,
4.28,0.0,0.0,-33.33351358990648,0.0,0.0,0.0,87596.12465714528,,,
4.29,0.0,0.0,-33.30019037086292,0.0,0.0,0.0,,,,
4.3,0.0,0.0,-33.266968405389235,0.0,0.0,0.0,87540.70190696599,33.49862509998744,-99.3376124767802,1215.7412281081217
4.3100000000000005,0.0,0.0,-33.233847276760706,0.0,0.0,0.0,,,,
4.32,0.0,0.0,-33.20082657047123,0.0,0.0,0.0,87485.41077917014,,,
4.33,0.0,0.0,-33.167229806050905,0.0,0.0,0.0,,,,
4.34,0.0,0.0,-33.13281238735986,0.0,0.0,0.0,87430.25074147045,,,
4.3500000000000005,0.0,0.0,-33.09850500230548,0.0,0.0,0.0,,,,
4.36,0.0,0.0,-33.064307186230536,0.0,0.0,0.0,87375.22125698009,,,
4.37,0.0,0.0,-33.03021846497185,0.0,0.0,0.0,,,,
4.38,0.0,0.0,-32.99623836700816,0.0,0.0,0.0,87320.32178782354,,,
4.39,0.0,0.0,-32.96236642344339,0.0,0.0,0.0,,,,
4.4,0.0,0.0,-32.928602167988615,0.0,0.0,0.0,87265.55179973016,33.49862509998744,-99.33761247678018,1241.60155852564
4.41,0.0,0.0,-32.89494513694446,0.0,0.0,0.0,,,,
4.42,0.0,0.0,-32.862102436448296,0.0,0.0,0.0,87210.9107620883,,,
4.43,0.0,0.0,-32.83020555037444,0.0,0.0,0.0,,,,
4.44,0.0,0.0,-32.79840409311941,0.0,0.0,0.0,87156.39815183933,,,
4.45,0.0,0.0,-32.76669767780839,0.0,0.0,0.0,,,,
4.46,0.0,0.0,-32.73508592035984,0.0,0.0,0.0,87102.01345754089,,,
4.47,0.0,0.0,-32.70356843869014,0.0,0.0,0.0,,,,
4.48,0.0,0.0,-32.67404239459653,0.0,0.0,0.0,87047.75617216692,,,
4.49,0.0,0.0,-32.64726230879596,0.0,0.0,0.0,,,,
4.5,0.0,0.0,-32.620546132757056,0.0,0.0,0.0,86993.6258030717,33.498625099987436,-99.33761247678022,1267.2303811537122
4.51,0.0,0.0,-32.59389366464377,0.0,0.0,0.0,,,,
4.5200000000000005,0.0,0.0,-32.56730470343449,0.0,0.0,0.0,86939.6218849719,,,
4.53,0.0,0.0,-32.53564750825496,0.0,0.0,0.0,,,,
4.54,0.0,0.0,-32.50322237884386,0.0,0.0,0.0,86885.74395277599,,,
4.55,0.0,0.0,-32.47089875534755,0.0,0.0,0.0,,,,
4.5600000000000005,0.0,0.0,-32.43867620810707,0.0,0.0,0.0,86831.99150884137,,,
4.57,0.0,0.0,-32.406952764885844,0.0,0.0,0.0,,,,
4.58,0.0,0.0,-32.376403946901235,0.0,0.0,0.0,86778.36404935384,,,
4.59,0.0,0.0,-32.34594514634495,0.0,0.0,0.0,,,,
4.6000000000000005,0.0,0.0,-32.31557600526556,0.0,0.0,0.0,86724.86108113597,33.498625099987436,-99.3376124767802,1292.6308091068986
4.61,0.0,0.0,-32.2852961672625,0.0,0.0,0.0,,,,
4.62,0.0,0.0,-32.25510527787889,0.0,0.0,0.0,86671.48211908597,,,
4.63,0.0,0.0,-32.22484237570496,0.0,0.0,0.0,,,,
4.64,0.0,0.0,-32.1933838176322,0.0,0.0,0.0,86618.22668097343,,,
4.65,0.0,0.0,-32.16202270906072,0.0,0.0,0.0,,,,
4.66,0.0,0.0,-32.13075862849959,0.0,0.0,0.0,86565.0942814326,,,
4.67,0.0,0.0,-32.09959117082222,0.0,0.0,0.0,,,,
4.68,0.0,0.0,-32.071135380316136,0.0,0.0,0.0,86512.08443306184,,,
4.69,0.0,0.0,-32.04583591798253,0.0,0.0,0.0,,,,
4.7,0.0,0.0,-32.02059567288194,0.0,0.0,0.0,86459.19666593504,33.498625099987436,-99.33761247678018,1317.8058774762637
4.71,0.0,0.0,-31.995414462005392,0.0,0.0,0.0,,,,
4.72,0.0,0.0,-31.970292103066512,0.0,0.0,0.0,86406.43054255203,,,
4.73,0.0,0.0,-31.940848750811803,0.0,0.0,0.0,,,,
4.74,0.0,0.0,-31.910260753852256,0.0,0.0,0.0,86353.78562572371,,,
4.75,0.0,0.0,-31.87976656934751,0.0,0.0,0.0,,,,
4.76,0.0,0.0,-31.849365808142515,0.0,0.0,0.0,86301.26145121809,,,
4.7700000000000005,0.0,0.0,-31.81916166839718,0.0,0.0,0.0,,,,
4.78,0.0,0.0,-31.79032655312055,0.0,0.0,0.0,86248.85754615272,,,
4.79,0.0,0.0,-31.76157466619069,0.0,0.0,0.0,,,,
4.8,0.0,0.0,-31.732905727671053,0.0,0.0,0.0,86196.5734469025,33.498625099987436,-99.33761247678018,1342.7585404153735
4.8100000000000005,0.0,0.0,-31.704319415279265,0.0,0.0,0.0,,,,
4.82,0.0,0.0,-31.675815408346217,0.0,0.0,0.0,86144.40869819709,,,
4.83,0.0,0.0,-31.64739338780624,0.0,0.0,0.0,,,,
4.84,0.0,0.0,-31.61802934489348,0.0,0.0,0.0,86092.36284767113,,,
4.8500000000000005,0.0,0.0,-31.588424613888364,0.0,0.0,0.0,,,,
4.86,0.0,0.0,-31.558909643622577,0.0,0.0,0.0,86040.43544129518,,,
4.87,0.0,0.0,-31.529484073329613,0.0,0.0,0.0,,,,
4.88,0.0,0.0,-31.500147538268635,0.0,0.0,0.0,85988.62602173821,,,
4.89,0.0,0.0,-31.47613863924726,0.0,0.0,0.0,,,,
4.9,0.0,0.0,-31.45227138392721,0.0,0.0,0.0,85936.93414144235,33.49862509998745,-99.33761247678018,1367.4916701310035
4.91,0.0,0.0,-31.428458905638536,0.0,0.0,0.0,,,,
4.92,0.0,0.0,-31.404701038815695,0.0,0.0,0.0,85885.35938535545,,,
4.93,0.0,0.0,-31.38002865400481,0.0,0.0,0.0,,,,
4.94,0.0,0.0,-31.351137782877217,0.0,0.0,0.0,85833.90134677892,,,
4.95,0.0,0.0,-31.322333773552586,0.0,0.0,0.0,,,,
4.96,0.0,0.0,-31.293616275245135,0.0,0.0,0.0,85782.55959801411,,,
4.97,0.0,0.0,-31.26498493835563,0.0,0.0,0.0,,,,
4.98,0.0,0.0,-31.236439415116898,0.0,0.0,0.0,85731.33369562437,,,
4.99,0.0,0.0,-31.20797935956724,0.0,0.0,0.0,,,,
5.0,0.0,0.0,-31.17960442754309,0.0,0.0,0.0,85680.22319849354,33.49862509998745,-99.33761247678018,1392.008062382038
5.01,0.0,0.0,-31.15131427666791,0.0,0.0,0.0,,,,
5.0200000000000005,0.0,0.0,-31.123108566340825,0.0,0.0,0.0,85629.22766834668,,,
5.03,0.0,0.0,-31.097536411655852,0.0,0.0,0.0,,,,
5.04,0.0,0.0,-31.07456654965943,0.0,0.0,0.0,85578.34667271949,,,
5.05,0.0,0.0,-31.051648731247226,0.0,0.0,0.0,,,,
5.0600000000000005,0.0,0.0,-31.028782802583926,0.0,0.0,0.0,85527.57980783215,,,
5.07,0.0,0.0,-31.005968609236675,0.0,0.0,0.0,,,,
5.08,0.0,0.0,-30.98011335551938,0.0,0.0,0.0,85476.92668531658,,,
5.09,0.0,0.0,-30.952411725939122,0.0,0.0,0.0,,,,
5.1000000000000005,0.0,0.0,-30.924792205354706,0.0,0.0,0.0,85426.38690464305,33.49862509998744,-99.3376124767802,1416.3104227937756
5.11,0.0,0.0,-30.897254444971992,0.0,0.0,0.0,,,,
5.12,0.0,0.0,-30.869798119775574,0.0,0.0,0.0,85375.96004269416,,,
5.13,0.0,0.0,-30.84329271898416,0.0,0.0,0.0,,,,
5.14,0.0,0.0,-30.81722525954452,0.0,0.0,0.0,85325.64567804894,,,
5.15,0.0,0.0,-30.79123050773608,0.0,0.0,0.0,,,,
5.16,0.0,0.0,-30.765308191648487,0.0,0.0,0.0,85275.44339858288,,,
5.17,0.0,0.0,-30.739458040682848,0.0,0.0,0.0,,,,
5.18,0.0,0.0,-30.713679785543633,0.0,0.0,0.0,85225.35279727966,,,
5.19,0.0,0.0,-30.688373717446318,0.0,0.0,0.0,,,,
5.2,0.0,0.0,-30.666357425343932,0.0,0.0,0.0,85175.37347049259,33.498625099987436,-99.3376124767802,1440.4013550187246
5.21,0.0,0.0,-30.644390323585405,0.0,0.0,0.0,,,,
5.22,0.0,0.0,-30.622472266774892,0.0,0.0,0.0,85125.50503247559,,,
5.23,0.0,0.0,-30.600603111280783,0.0,0.0,0.0,,,,
5.24,0.0,0.0,-30.578150858775885,0.0,0.0,0.0,85075.74711302482,,,
5.25,0.0,0.0,-30.551625510782337,0.0,0.0,0.0,,,,
5.26,0.0,0.0,-30.525177607517783,0.0,0.0,0.0,85026.09933642106,,,
5.2700000000000005,0.0,0.0,-30.498806843098805,0.0,0.0,0.0,,,,
5.28,0.0,0.0,-30.472512916031228,0.0,0.0,0.0,84976.56130299321,,,
5.29,0.0,0.0,-30.446295526348486,0.0,0.0,0.0,,,,
5.3,0.0,0.0,-30.420154375591864,0.0,0.0,0.0,84927.13261020997,33.498625099987436,-99.33761247678018,1464.2833976419176
5.3100000000000005,0.0,0.0,-30.394089166803887,0.0,0.0,0.0,,,,
5.32,0.0,0.0,-30.368099604519394,0.0,0.0,0.0,84877.81285807476,,,
5.33,0.0,0.0,-30.34218539475635,0.0,0.0,0.0,,,,
5.34,0.0,0.0,-30.316764119200116,0.0,0.0,0.0,84828.60164910824,,,
5.3500000000000005,0.0,0.0,-30.29560454374046,0.0,0.0,0.0,,,,
5.36,0.0,0.0,-30.274491628951218,0.0,0.0,0.0,84779.49859562602,,,
5.37,0.0,0.0,-30.253425240128735,0.0,0.0,0.0,,,,
5.38,0.0,0.0,-30.23240524306751,0.0,0.0,0.0,84730.5033375537,,,
5.39,0.0,0.0,-30.211312790265616,0.0,0.0,0.0,,,,
5.4,0.0,0.0,-30.185846602850418,0.0,0.0,0.0,84681.61552156052,33.498625099987436,-99.33761247678021,1487.9590231025666
5.41,0.0,0.0,-30.160453817425633,0.0,0.0,0.0,,,,
5.42,0.0,0.0,-30.135134076205738,0.0,0.0,0.0,84632.83477790888,,,
5.43,0.0,0.0,-30.10988709901917,0.0,0.0,0.0,,,,
5.44,0.0,0.0,-30.08471260627386,0.0,0.0,0.0,84584.16072135202,,,
5.45,0.0,0.0,-30.059610319763806,0.0,0.0,0.0,,,,
5.46,0.0,0.0,-30.034579962660835,0.0,0.0,0.0,84535.59296837359,,,
5.47,0.0,0.0,-30.009621259506474,0.0,0.0,0.0,,,,
5.48,0.0,0.0,-29.98473393620366,0.0,0.0,0.0,84487.1311378424,,,
5.49,0.0,0.0,-29.95991772000852,0.0,0.0,0.0,,,,
5.5,0.0,0.0,-29.938734743910743,0.0,0.0,0.0,84438.77485145684,33.49862509998746,-99.3376124767802,1511.430638103305
5.51,0.0,0.0,-29.918434039919717,0.0,0.0,0.0,,,,
5.5200000000000005,0.0,0.0,-29.89817750168561,0.0,0.0,0.0,84390.52374899758,,,
5.53,0.0,0.0,-29.876315303072744,0.0,0.0,0.0,,,,
5.54,0.0,0.0,-29.85180483091179,0.0,0.0,0.0,84342.37748843107,,,
5.55,0.0,0.0,-29.827364030864757,0.0,0.0,0.0,,,,
5.5600000000000005,0.0,0.0,-29.80299263873485,0.0,0.0,0.0,84294.33571055342,,,
5.57,0.0,0.0,-29.77869039147526,0.0,0.0,0.0,,,,
5.58,0.0,0.0,-29.755344197490153,0.0,0.0,0.0,84246.39804566347,,,
5.59,0.0,0.0,-29.735456189315556,0.0,0.0,0.0,,,,
5.6000000000000005,0.0,0.0,-29.71561116205101,0.0,0.0,0.0,84198.56413403407,33.49862509998746,-99.33761247678021,1534.7006352821531
5.61,0.0,0.0,-29.69580899438906,0.0,0.0,0.0,,,,
5.62,0.0,0.0,-29.676049565589025,0.0,0.0,0.0,84150.83364110826,,,
5.63,0.0,0.0,-29.656304790212005,0.0,0.0,0.0,,,,
5.64,0.0,0.0,-29.632412520445783,0.0,0.0,0.0,84103.20623734513,,,
5.65,0.0,0.0,-29.60858758951307,0.0,0.0,0.0,,,,
5.66,0.0,0.0,-29.584829742775312,0.0,0.0,0.0,84055.68157928089,,,
5.67,0.0,0.0,-29.56113872853517,0.0,0.0,0.0,,,,
5.68,0.0,0.0,-29.53751429629068,0.0,0.0,0.0,84008.25930791041,,,
5.69,0.0,0.0,-29.513956196750797,0.0,0.0,0.0,,,,
5.7,0.0,0.0,-29.490464181831932,0.0,0.0,0.0,83960.93906607336,33.49862509998744,-99.33761247678021,1557.7712670949222
5.71,0.0,0.0,-29.467038004647314,0.0,0.0,0.0,,,,
5.72,0.0,0.0,-29.44367741949972,0.0,0.0,0.0,83913.72049878632,,,
5.73,0.0,0.0,-29.420382181878082,0.0,0.0,0.0,,,,
5.74,0.0,0.0,-29.399269690959933,0.0,0.0,0.0,83866.60325333673,,,
5.75,0.0,0.0,-29.38017554086339,0.0,0.0,0.0,,,,
5.76,0.0,0.0,-29.361122117916608,0.0,0.0,0.0,83819.58698983744,,,
5.7700000000000005,0.0,0.0,-29.34210930906908,0.0,0.0,0.0,,,,
5.78,0.0,0.0,-29.32313700167535,0.0,0.0,0.0,83772.67139088594,,,
5.79,0.0,0.0,-29.303282020734258,0.0,0.0,0.0,,,,
5.8,0.0,0.0,-29.280373491217688,0.0,0.0,0.0,83725.85614166463,33.49862509998743,-99.3376124767802,1580.6447753272682
5.8100000000000005,0.0,0.0,-29.25752864298868,0.0,0.0,0.0,,,,
5.82,0.0,0.0,-29.234747229316177,0.0,0.0,0.0,83679.14091105788,,,
5.83,0.0,0.0,-29.212029016036247,0.0,0.0,0.0,,,,
5.84,0.0,0.0,-29.18937377010127,0.0,0.0,0.0,83632.5253565242,,,
5.8500000000000005,0.0,0.0,-29.170388490989417,0.0,0.0,0.0,,,,
5.86,0.0,0.0,-29.15179481806574,0.0,0.0,0.0,83586.00914235244,,,
5.87,0.0,0.0,-29.13324047410076,0.0,0.0,0.0,,,,
5.88,0.0,0.0,-29.11472535102095,0.0,0.0,0.0,83539.59195580971,,,
5.89,0.0,0.0,-29.09624934113514,0.0,0.0,0.0,,,,
5.9,0.0,0.0,-29.07450563832613,0.0,0.0,0.0,83493.27349182831,33.498625099987464,-99.33761247678021,1603.3233071835764
5.91,0.0,0.0,-29.05028077844142,0.0,0.0,0.0,,,,
5.92,0.0,0.0,-29.02612917387672,0.0,0.0,0.0,83447.05343101682,,,
5.93,0.0,0.0,-29.002050530624842,0.0,0.0,0.0,,,,
5.94,0.0,0.0,-28.983734057572477,0.0,0.0,0.0,83400.9314281677,,,
5.95,0.0,0.0,-28.96554782503432,0.0,0.0,0.0,,,,
5.96,0.0,0.0,-28.947399791100942,0.0,0.0,0.0,83354.90715978059,,,
5.97,0.0,0.0,-28.929289852090868,0.0,0.0,0.0,,,,
5.98,0.0,0.0,-28.911217905054663,0.0,0.0,0.0,83308.98034116827,,,
5.99,0.0,0.0,-28.89094772481208,0.0,0.0,0.0,,,,
6.0,0.0,0.0,-28.869168479231433,0.0,0.0,0.0,83263.1507236947,33.49862509998745,-99.33761247678021,1625.8089373449834
6.01,0.0,0.0,-28.847448772701348,0.0,0.0,0.0,,,,
6.0200000000000005,0.0,0.0,-28.825788390133503,0.0,0.0,0.0,83217.41804603461,,,
6.03,0.0,0.0,-28.80418711754502,0.0,0.0,0.0,,,,
6.04,0.0,0.0,-28.783256804745044,0.0,0.0,0.0,83171.78203923392,,,
6.05,0.0,0.0,-28.765503974485085,0.0,0.0,0.0,,,,
6.0600000000000005,0.0,0.0,-28.74778805683667,0.0,0.0,0.0,83126.24244204324,,,
6.07,0.0,0.0,-28.73010905177592,0.0,0.0,0.0,,,,
6.08,0.0,0.0,-28.712466863985746,0.0,0.0,0.0,83080.7990146163,,,
6.09,0.0,0.0,-28.694861394920558,0.0,0.0,0.0,,,,
6.1000000000000005,0.0,0.0,-28.67468101062181,0.0,0.0,0.0,83035.45152184187,33.49862509998745,-99.33761247678021,1648.103695173198
6.11,0.0,0.0,-28.6534860452134,0.0,0.0,0.0,,,,
6.12,0.0,0.0,-28.632348520193638,0.0,0.0,0.0,82990.19971806409,,,
6.13,0.0,0.0,-28.611268230001052,0.0,0.0,0.0,,,,
6.140000000000001,0.0,0.0,-28.590244970309392,0.0,0.0,0.0,82945.0433418257,,,
6.15,0.0,0.0,-28.570098948474737,0.0,0.0,0.0,,,,
6.16,0.0,0.0,-28.55280220560134,0.0,0.0,0.0,82899.98213283741,,,
6.17,0.0,0.0,-28.535541234968846,0.0,0.0,0.0,,,,
6.18,0.0,0.0,-28.51831595198405,0.0,0.0,0.0,82855.01584813757,,,
6.19,0.0,0.0,-28.49913930369609,0.0,0.0,0.0,,,,
6.2,0.0,0.0,-28.478415518541183,0.0,0.0,0.0,82810.14425507598,33.498625099987464,-99.33761247678021,1670.2095427589068
6.21,0.0,0.0,-28.457747497370107,0.0,0.0,0.0,,,,
6.22,0.0,0.0,-28.437135041903645,0.0,0.0,0.0,82765.36710531558,,,
6.23,0.0,0.0,-28.41657795545583,0.0,0.0,0.0,,,,
6.24,0.0,0.0,-28.396150274610505,0.0,0.0,0.0,82720.68414192165,,,
6.25,0.0,0.0,-28.379225389720624,0.0,0.0,0.0,,,,
6.26,0.0,0.0,-28.362335287164633,0.0,0.0,0.0,82676.09511323545,,,
6.2700000000000005,0.0,0.0,-28.345479877590755,0.0,0.0,0.0,,,,
6.28,0.0,0.0,-28.328659068544994,0.0,0.0,0.0,82631.59979166108,,,
6.29,0.0,0.0,-28.311872769012894,0.0,0.0,0.0,,,,
6.3,0.0,0.0,-28.293528372425058,0.0,0.0,0.0,82587.1979512603,33.49862509998745,-99.3376124767802,1692.1284220100301
6.3100000000000005,0.0,0.0,-28.273351201677293,0.0,0.0,0.0,,,,
6.32,0.0,0.0,-28.253227867294306,0.0,0.0,0.0,82542.88935979191,,,
6.33,0.0,0.0,-28.233158180440917,0.0,0.0,0.0,,,,
6.34,0.0,0.0,-28.21314195313485,0.0,0.0,0.0,82498.67376862839,,,
6.3500000000000005,0.0,0.0,-28.193178998241883,0.0,0.0,0.0,,,,
6.36,0.0,0.0,-28.176225948603594,0.0,0.0,0.0,82454.5509285904,,,
6.37,0.0,0.0,-28.159764148638274,0.0,0.0,0.0,,,,
6.38,0.0,0.0,-28.14333590285228,0.0,0.0,0.0,82410.52060375689,,,
6.390000000000001,0.0,0.0,-28.126529961884422,0.0,0.0,0.0,,,,
6.4,0.0,0.0,-28.106794012488997,0.0,0.0,0.0,82366.58257283758,33.49862509998744,-99.3376124767802,1713.862205496625
6.41,0.0,0.0,-28.08711035825921,0.0,0.0,0.0,,,,
6.42,0.0,0.0,-28.067478817297477,0.0,0.0,0.0,82322.73660215139,,,
6.43,0.0,0.0,-28.047899208519574,0.0,0.0,0.0,,,,
6.44,0.0,0.0,-28.028371351651195,0.0,0.0,0.0,82278.98244707237,,,
6.45,0.0,0.0,-28.010488305432347,0.0,0.0,0.0,,,,
6.46,0.0,0.0,-27.99437591708152,0.0,0.0,0.0,82235.31986564057,,,
6.47,0.0,0.0,-27.97829616093877,0.0,0.0,0.0,,,,
6.48,0.0,0.0,-27.962248952553416,0.0,0.0,0.0,82191.74863330592,,,
6.49,0.0,0.0,-27.94623420775485,0.0,0.0,0.0,,,,
6.5,0.0,0.0,-27.930251842648595,0.0,0.0,0.0,82148.26853512971,33.49862509998743,-99.33761247678021,1735.4127431070065
6.51,0.0,0.0,-27.91034205342313,0.0,0.0,0.0,,,,
6.5200000000000005,0.0,0.0,-27.88954149014249,0.0,0.0,0.0,82104.87935211587,,,
6.53,0.0,0.0,-27.86880083054499,0.0,0.0,0.0,,,,
6.54,0.0,0.0,-27.84816111294419,0.0,0.0,0.0,82061.58084036432,,,
6.55,0.0,0.0,-27.83238890299433,0.0,0.0,0.0,,,,
6.5600000000000005,0.0,0.0,-27.81664841837881,0.0,0.0,0.0,82018.37275490061,,,
6.57,0.0,0.0,-27.800939593458857,0.0,0.0,0.0,,,,
6.58,0.0,0.0,-27.785262346905398,0.0,0.0,0.0,81975.25487842316,,,
6.59,0.0,0.0,-27.769616597744218,0.0,0.0,0.0,,,,
6.6000000000000005,0.0,0.0,-27.75309118168849,0.0,0.0,0.0,81932.22700061643,33.49862509998744,-99.33761247678021,1756.7818324729026
6.61,0.0,0.0,-27.734330025958407,0.0,0.0,0.0,,,,
6.62,0.0,0.0,-27.715617803988323,0.0,0.0,0.0,81889.28890574854,,,
6.63,0.0,0.0,-27.696954351641544,0.0,0.0,0.0,,,,
6.640000000000001,0.0,0.0,-27.678339502832202,0.0,0.0,0.0,81846.44036236787,,,
6.65,0.0,0.0,-27.659773092038556,0.0,0.0,0.0,,,,
6.66,0.0,0.0,-27.642925618082607,0.0,0.0,0.0,81803.68113752878,,,
6.67,0.0,0.0,-27.6275770163205,0.0,0.0,0.0,,,,
6.68,0.0,0.0,-27.61225905928638,0.0,0.0,0.0,81761.01100745125,,,
6.69,0.0,0.0,-27.59697166905785,0.0,0.0,0.0,,,,
6.7,0.0,0.0,-27.579603589635255,0.0,0.0,0.0,81718.42976481521,33.49862509998744,-99.33761247678021,1777.9712295609647
6.71,0.0,0.0,-27.56129054056818,0.0,0.0,0.0,,,,
6.72,0.0,0.0,-27.54302490602273,0.0,0.0,0.0,81675.93719527753,,,
6.73,0.0,0.0,-27.524806525794055,0.0,0.0,0.0,,,,
6.74,0.0,0.0,-27.506635240261055,0.0,0.0,0.0,81633.53307103078,,,
6.75,0.0,0.0,-27.488510890496116,0.0,0.0,0.0,,,,
6.76,0.0,0.0,-27.473106856596374,0.0,0.0,0.0,81591.2171646781,,,
6.7700000000000005,0.0,0.0,-27.45810813256653,0.0,0.0,0.0,,,,
6.78,0.0,0.0,-27.443139153870597,0.0,0.0,0.0,81548.9892606383,,,
6.79,0.0,0.0,-27.428199845508303,0.0,0.0,0.0,,,,
6.8,0.0,0.0,-27.410301841839427,0.0,0.0,0.0,81506.8491564107,33.49862509998745,-99.33761247678021,1798.982657968075
6.8100000000000005,0.0,0.0,-27.392422813883847,0.0,0.0,0.0,,,,
6.82,0.0,0.0,-27.37458973967027,0.0,0.0,0.0,81464.79663946493,,,
6.83,0.0,0.0,-27.356802465218173,0.0,0.0,0.0,,,,
6.84,0.0,0.0,-27.33906083721198,0.0,0.0,0.0,81422.83148649895,,,
6.8500000000000005,0.0,0.0,-27.321769644162018,0.0,0.0,0.0,,,,
6.86,0.0,0.0,-27.30708191785743,0.0,0.0,0.0,81380.95347553994,,,
6.87,0.0,0.0,-27.292423100644605,0.0,0.0,0.0,,,,
6.88,0.0,0.0,-27.27779316005718,0.0,0.0,0.0,81339.16239797366,,,
6.890000000000001,0.0,0.0,-27.26319202596362,0.0,0.0,0.0,,,,
6.9,0.0,0.0,-27.248619626384908,0.0,0.0,0.0,81297.45805647294,33.498625099987436,-99.33761247678018,1819.8178064902238
6.91,0.0,0.0,-27.234075889571315,0.0,0.0,0.0,,,,
6.92,0.0,0.0,-27.219560744001186,0.0,0.0,0.0,81255.84025476238,,,
6.93,0.0,0.0,-27.2050741183808,0.0,0.0,0.0,,,,
6.94,0.0,0.0,-27.19061594164286,0.0,0.0,0.0,81214.3087973087,,,
6.95,0.0,0.0,-27.175280451103916,0.0,0.0,0.0,,,,
6.96,0.0,0.0,-27.157995492036008,0.0,0.0,0.0,81172.8634881652,,,
6.97,0.0,0.0,-27.140754509614204,0.0,0.0,0.0,,,,
6.98,0.0,0.0,-27.123557358347796,0.0,0.0,0.0,81131.504119082,,,
6.99,0.0,0.0,-27.106403893368146,0.0,0.0,0.0,,,,
7.0,0.0,0.0,-27.089293970422304,0.0,0.0,0.0,81090.23047401218,33.498625099987436,-99.33761247678021,1840.478271155293
7.01,0.0,0.0,-27.073307830264355,0.0,0.0,0.0,,,,
7.0200000000000005,0.0,0.0,-27.05911896170648,0.0,0.0,0.0,81049.04233899876,,,
7.03,0.0,0.0,-27.044957790713596,0.0,0.0,0.0,,,,
7.04,0.0,0.0,-27.030824248845327,0.0,0.0,0.0,81007.93951437599,,,
7.05,0.0,0.0,-27.01557230369589,0.0,0.0,0.0,,,,
7.0600000000000005,0.0,0.0,-26.99868956594485,0.0,0.0,0.0,80966.92180796269,,,
7.07,0.0,0.0,-26.98184948013801,0.0,0.0,0.0,,,,
7.08,0.0,0.0,-26.965051906413656,0.0,0.0,0.0,80925.98901521746,,,
7.09,0.0,0.0,-26.948296705501527,0.0,0.0,0.0,,,,
7.1000000000000005,0.0,0.0,-26.93158373871983,0.0,0.0,0.0,80885.14092473628,33.49862509998744,-99.33761247678021,1860.9656162349293
7.11,0.0,0.0,-26.91608188505083,0.0,0.0,0.0,,,,
7.12,0.0,0.0,-26.902210173824976,0.0,0.0,0.0,80844.37732737699,,,
7.13,0.0,0.0,-26.888365353240054,0.0,0.0,0.0,,,,
7.140000000000001,0.0,0.0,-26.874547370826562,0.0,0.0,0.0,80803.69802796701,,,
7.15,0.0,0.0,-26.86075616138651,0.0,0.0,0.0,,,,
7.16,0.0,0.0,-26.846991659390895,0.0,0.0,0.0,80763.10283968961,,,
7.17,0.0,0.0,-26.833253799515163,0.0,0.0,0.0,,,,
7.18,0.0,0.0,-26.81954251663869,0.0,0.0,0.0,80722.59157650752,,,
7.19,0.0,0.0,-26.80585774584408,0.0,0.0,0.0,,,,
7.2,0.0,0.0,-26.79219942241636,0.0,0.0,0.0,80682.1640530771,33.49862509998744,-99.33761247678021,1881.2814116298146
7.21,0.0,0.0,-26.777022837028895,0.0,0.0,0.0,,,,
7.22,0.0,0.0,-26.75938894893835,0.0,0.0,0.0,80641.82008291235,,,
7.23,0.0,0.0,-26.74180334415341,0.0,0.0,0.0,,,,
7.24,0.0,0.0,-26.724265854154496,0.0,0.0,0.0,80601.55946149795,,,
7.25,0.0,0.0,-26.708145500676004,0.0,0.0,0.0,,,,
7.26,0.0,0.0,-26.69468641178205,0.0,0.0,0.0,80561.3819755712,,,
7.2700000000000005,0.0,0.0,-26.68125319019265,0.0,0.0,0.0,,,,
7.28,0.0,0.0,-26.667845791441387,0.0,0.0,0.0,80521.28743090689,,,
7.29,0.0,0.0,-26.654464154058104,0.0,0.0,0.0,,,,
7.3,0.0,0.0,-26.6411082156741,0.0,0.0,0.0,80481.27564579024,33.49862509998745,-99.33761247678021,1901.42713099611
7.3100000000000005,0.0,0.0,-26.626764850786387,0.0,0.0,0.0,,,,
7.32,0.0,0.0,-26.60953870116095,0.0,0.0,0.0,80441.34643805683,,,
7.33,0.0,0.0,-26.592359396117907,0.0,0.0,0.0,,,,
7.34,0.0,0.0,-26.575226771083216,0.0,0.0,0.0,80401.49960895206,,,
7.3500000000000005,0.0,0.0,-26.558854286018175,0.0,0.0,0.0,,,,
7.36,0.0,0.0,-26.54569224583394,0.0,0.0,0.0,80361.7349494414,,,
7.37,0.0,0.0,-26.532555285267662,0.0,0.0,0.0,,,,
7.38,0.0,0.0,-26.51944341909556,0.0,0.0,0.0,80322.05226747872,,,
7.390000000000001,0.0,0.0,-26.50635659000705,0.0,0.0,0.0,,,,
7.4,0.0,0.0,-26.493294737880127,0.0,0.0,0.0,80282.45138499839,33.49862509998746,-99.33761247678021,1921.4042760722386
7.41,0.0,0.0,-26.480257802777324,0.0,0.0,0.0,,,,
7.42,0.0,0.0,-26.467245724945087,0.0,0.0,0.0,80242.93212485965,,,
7.43,0.0,0.0,-26.454258444813078,0.0,0.0,0.0,,,,
7.44,0.0,0.0,-26.441295902993495,0.0,0.0,0.0,80203.4943105687,,,
7.45,0.0,0.0,-26.428358040280436,0.0,0.0,0.0,,,,
7.46,0.0,0.0,-26.413076230413914,0.0,0.0,0.0,80164.13776592784,,,
7.47,0.0,0.0,-26.39768062516793,0.0,0.0,0.0,,,,
7.48,0.0,0.0,-26.382322879627054,0.0,0.0,0.0,80124.8623062008,,,
7.49,0.0,0.0,-26.36700287387324,0.0,0.0,0.0,,,,
7.5,0.0,0.0,-26.35172048847832,0.0,0.0,0.0,80085.66773748142,33.49862509998744,-99.3376124767802,1941.2142871689123
7.51,0.0,0.0,-26.3364756045021,0.0,0.0,0.0,,,,
7.5200000000000005,0.0,0.0,-26.323137043488586,0.0,0.0,0.0,80046.55386644097,,,
7.53,0.0,0.0,-26.31043385903373,0.0,0.0,0.0,,,,
7.54,0.0,0.0,-26.29775472438191,0.0,0.0,0.0,80007.52050842835,,,
7.55,0.0,0.0,-26.28509958244053,0.0,0.0,0.0,,,,
7.5600000000000005,0.0,0.0,-26.270213510200605,0.0,0.0,0.0,79968.56749027317,,,
7.57,0.0,0.0,-26.25394267870496,0.0,0.0,0.0,,,,
7.58,0.0,0.0,-26.237715365286732,0.0,0.0,0.0,79929.69463028689,,,
7.59,0.0,0.0,-26.221531420335964,0.0,0.0,0.0,,,,
7.6000000000000005,0.0,0.0,-26.207054210676382,0.0,0.0,0.0,79890.9017297706,33.49862509998745,-99.3376124767802,1960.8585651136623
7.61,0.0,0.0,-26.19458049431374,0.0,0.0,0.0,,,,
7.62,0.0,0.0,-26.182130273775464,0.0,0.0,0.0,79852.188598455,,,
7.63,0.0,0.0,-26.16970349365988,0.0,0.0,0.0,,,,
7.640000000000001,0.0,0.0,-26.157300098732712,0.0,0.0,0.0,79813.5550647093,,,
7.65,0.0,0.0,-26.14492003392614,0.0,0.0,0.0,,,,
7.66,0.0,0.0,-26.132563244338442,0.0,0.0,0.0,79775.00095972954,,,
7.67,0.0,0.0,-26.120229675233574,0.0,0.0,0.0,,,,
7.68,0.0,0.0,-26.107919272040235,0.0,0.0,0.0,79736.52611532128,,,
7.69,0.0,0.0,-26.095631980351477,0.0,0.0,0.0,,,,
7.7,0.0,0.0,-26.083345102897212,0.0,0.0,0.0,79698.13036389656,33.49862509998744,-99.3376124767802,1980.3385298310811
7.71,0.0,0.0,-26.068746401969968,0.0,0.0,0.0,,,,
7.72,0.0,0.0,-26.05418307876168,0.0,0.0,0.0,79659.81353535478,,,
7.73,0.0,0.0,-26.039655007214307,0.0,0.0,0.0,,,,
7.74,0.0,0.0,-26.025162077971153,0.0,0.0,0.0,79621.57544777707,,,
7.75,0.0,0.0,-26.01070418211451,0.0,0.0,0.0,,,,
7.76,0.0,0.0,-25.996281211162724,0.0,0.0,0.0,79583.41591701952,,,
7.7700000000000005,0.0,0.0,-25.983518972571176,0.0,0.0,0.0,,,,
7.78,0.0,0.0,-25.971474466048043,0.0,0.0,0.0,79545.33476166915,,,
7.79,0.0,0.0,-25.9594524387066,0.0,0.0,0.0,,,,
7.8,0.0,0.0,-25.947452838209756,0.0,0.0,0.0,79507.33181281274,33.49862509998746,-99.33761247678018,1999.6554992193346
7.8100000000000005,0.0,0.0,-25.93547561237758,0.0,0.0,0.0,,,,
7.82,0.0,0.0,-25.923520709185418,0.0,0.0,0.0,79469.40690679787,,,
7.83,0.0,0.0,-25.911588076763735,0.0,0.0,0.0,,,,
7.84,0.0,0.0,-25.899677663397583,0.0,0.0,0.0,79431.55988056088,,,
7.8500000000000005,0.0,0.0,-25.88723836518961,0.0,0.0,0.0,,,,
7.86,0.0,0.0,-25.873107370581565,0.0,0.0,0.0,79393.79057089849,,,
7.87,0.0,0.0,-25.859010294951055,0.0,0.0,0.0,,,,
7.88,0.0,0.0,-25.844947034255455,0.0,0.0,0.0,79356.09880538372,,,
7.890000000000001,0.0,0.0,-25.830917484865303,0.0,0.0,0.0,,,,
7.9,0.0,0.0,-25.816921543559907,0.0,0.0,0.0,79318.48440516285,33.49862509998744,-99.3376124767802,2018.8107911290406
7.91,0.0,0.0,-25.80295910752823,0.0,0.0,0.0,,,,
7.92,0.0,0.0,-25.79095471483368,0.0,0.0,0.0,79280.94719230582,,,
7.930000000000001,0.0,0.0,-25.779277957420007,0.0,0.0,0.0,,,,
7.94,0.0,0.0,-25.767622817202636,0.0,0.0,0.0,79243.48699771268,,,
7.95,0.0,0.0,-25.755989244426047,0.0,0.0,0.0,,,,
7.96,0.0,0.0,-25.743068454226474,0.0,0.0,0.0,79206.10366085354,,,
7.97,0.0,0.0,-25.729279819915536,0.0,0.0,0.0,,,,
7.98,0.0,0.0,-25.715524059536726,0.0,0.0,0.0,79168.79701694453,,,
7.99,0.0,0.0,-25.70180107317335,0.0,0.0,0.0,,,,
8.0,0.0,0.0,-25.68811076130111,0.0,0.0,0.0,79131.56689173575,33.49862509998745,-99.3376124767802,2037.8056960986123
8.01,0.0,0.0,-25.674453024786224,0.0,0.0,0.0,,,,
8.02,0.0,0.0,-25.661178303866095,0.0,0.0,0.0,79094.41311062264,,,
8.03,0.0,0.0,-25.649750700837586,0.0,0.0,0.0,,,,
8.040000000000001,0.0,0.0,-25.638344130267427,0.0,0.0,0.0,79057.33550334215,,,
8.05,0.0,0.0,-25.62695854734258,0.0,0.0,0.0,,,,
8.06,0.0,0.0,-25.615593904162694,0.0,0.0,0.0,79020.33391153571,,,
8.07,0.0,0.0,-25.60425015296792,0.0,0.0,0.0,,,,
8.08,0.0,0.0,-25.592927246138395,0.0,0.0,0.0,78983.40817962174,,,
8.09,0.0,0.0,-25.581625136193665,0.0,0.0,0.0,,,,
8.1,0.0,0.0,-25.570343775792352,0.0,0.0,0.0,78946.55815256813,33.49862509998744,-99.33761247678021,2056.6415068209412
8.11,0.0,0.0,-25.557939541454367,0.0,0.0,0.0,,,,
8.120000000000001,0.0,0.0,-25.544585281082327,0.0,0.0,0.0,78909.7836746223,,,
8.13,0.0,0.0,-25.531262583238643,0.0,0.0,0.0,,,,
8.14,0.0,0.0,-25.517971353131777,0.0,0.0,0.0,78873.08458030796,,,
8.15,0.0,0.0,-25.50471149633828,0.0,0.0,0.0,,,,
8.16,0.0,0.0,-25.491482918800983,0.0,0.0,0.0,78836.46069981766,,,
8.17,0.0,0.0,-25.478361275725447,0.0,0.0,0.0,,,,
8.18,0.0,0.0,-25.467278308531213,0.0,0.0,0.0,78799.91186440719,,,
8.19,0.0,0.0,-25.456215567101538,0.0,0.0,0.0,,,,
8.2,0.0,0.0,-25.445173023149536,0.0,0.0,0.0,78763.43791406209,33.49862509998746,-99.33761247678018,2075.31944481261
8.21,0.0,0.0,-25.434150630846254,0.0,0.0,0.0,,,,
8.22,0.0,0.0,-25.423148344740667,0.0,0.0,0.0,78727.03869702012,,,
8.23,0.0,0.0,-25.41216611951362,0.0,0.0,0.0,,,,
8.24,0.0,0.0,-25.401203909977426,0.0,0.0,0.0,78690.71406233493,,,
8.25,0.0,0.0,-25.390261671075486,0.0,0.0,0.0,,,,
8.26,0.0,0.0,-25.378362312996693,0.0,0.0,0.0,78654.46385955627,,,
8.27,0.0,0.0,-25.36440754239438,0.0,0.0,0.0,,,,
8.28,0.0,0.0,-25.350488544174162,0.0,0.0,0.0,78618.28793263556,,,
8.290000000000001,0.0,0.0,-25.336605192304347,0.0,0.0,0.0,,,,
8.3,0.0,0.0,-25.322757371229628,0.0,0.0,0.0,78582.18611077698,33.498625099987436,-99.3376124767802,2093.8407248973454
8.31,0.0,0.0,-25.311784817855674,0.0,0.0,0.0,,,,
8.32,0.0,0.0,-25.301014170681768,0.0,0.0,0.0,78546.15822480206,,,
8.33,0.0,0.0,-25.29026305509367,0.0,0.0,0.0,,,,
8.34,0.0,0.0,-25.279531427497012,0.0,0.0,0.0,78510.20412299961,,,
8.35,0.0,0.0,-25.268819244199854,0.0,0.0,0.0,,,,
8.36,0.0,0.0,-25.258126461803993,0.0,0.0,0.0,78474.32365774331,,,
8.370000000000001,0.0,0.0,-25.24745303703626,0.0,0.0,0.0,,,,
8.38,0.0,0.0,-25.236798926747824,0.0,0.0,0.0,78438.51668189504,,,
8.39,0.0,0.0,-25.22616408791373,0.0,0.0,0.0,,,,
8.4,0.0,0.0,-25.21554847763255,0.0,0.0,0.0,78402.78304896371,33.498625099987436,-99.3376124767802,2112.2065382536557
8.41,0.0,0.0,-25.204952053125822,0.0,0.0,0.0,,,,
8.42,0.0,0.0,-25.191633247161136,0.0,0.0,0.0,78367.1226123875,,,
8.43,0.0,0.0,-25.178150443623984,0.0,0.0,0.0,,,,
8.44,0.0,0.0,-25.164701878720606,0.0,0.0,0.0,78331.53521571327,,,
8.45,0.0,0.0,-25.151287443000218,0.0,0.0,0.0,,,,
8.46,0.0,0.0,-25.1393787758142,0.0,0.0,0.0,78296.02069270944,,,
8.47,0.0,0.0,-25.128928577109782,0.0,0.0,0.0,,,,
8.48,0.0,0.0,-25.118497188146563,0.0,0.0,0.0,78260.57888321209,,,
8.49,0.0,0.0,-25.10808456735206,0.0,0.0,0.0,,,,
8.5,0.0,0.0,-25.097690673272673,0.0,0.0,0.0,78225.2096418594,33.49862509998745,-99.3376124767802,2130.418027940668
8.51,0.0,0.0,-25.087315464572868,0.0,0.0,0.0,,,,
8.52,0.0,0.0,-25.07695890003485,0.0,0.0,0.0,78189.9128254649,,,
8.53,0.0,0.0,-25.066620938558138,0.0,0.0,0.0,,,,
8.540000000000001,0.0,0.0,-25.056301539159172,0.0,0.0,0.0,78154.6882913337,,,
8.55,0.0,0.0,-25.046000660970936,0.0,0.0,0.0,,,,
8.56,0.0,0.0,-25.035718263242554,0.0,0.0,0.0,78119.53589726001,,,
8.57,0.0,0.0,-25.024377209358924,0.0,0.0,0.0,,,,
8.58,0.0,0.0,-25.011312933507334,0.0,0.0,0.0,78084.45550035425,,,
8.59,0.0,0.0,-24.998281548796086,0.0,0.0,0.0,,,,
8.6,0.0,0.0,-24.985282963509313,0.0,0.0,0.0,78049.44694532405,33.498625099987436,-99.33761247678018,2148.4763360623697
8.61,0.0,0.0,-24.972317073940538,0.0,0.0,0.0,,,,
8.620000000000001,0.0,0.0,-24.961915203948674,0.0,0.0,0.0,78014.510070121,,,
8.63,0.0,0.0,-24.951791959976497,0.0,0.0,0.0,,,,
8.64,0.0,0.0,-24.941686798025636,0.0,0.0,0.0,77979.64472307246,,,
8.65,0.0,0.0,-24.93159967859635,0.0,0.0,0.0,,,,
8.66,0.0,0.0,-24.921530562301072,0.0,0.0,0.0,77944.85076407861,,,
8.67,0.0,0.0,-24.911479409863038,0.0,0.0,0.0,,,,
8.68,0.0,0.0,-24.90144618211626,0.0,0.0,0.0,77910.12805411483,,,
8.69,0.0,0.0,-24.8914308400051,0.0,0.0,0.0,,,,
8.700000000000001,0.0,0.0,-24.881433344583918,0.0,0.0,0.0,77875.47645462892,33.49862509998743,-99.3376124767802,2166.382573095095
8.71,0.0,0.0,-24.87145365701673,0.0,0.0,0.0,,,,
8.72,0.0,0.0,-24.861491738576795,0.0,0.0,0.0,77840.89582753953,,,
8.73,0.0,0.0,-24.851547550646302,0.0,0.0,0.0,,,,
8.74,0.0,0.0,-24.841621054716136,0.0,0.0,0.0,77806.38603523426,,,
8.75,0.0,0.0,-24.831712212385025,0.0,0.0,0.0,,,,
8.76,0.0,0.0,-24.82182098535943,0.0,0.0,0.0,77771.94694056723,,,
8.77,0.0,0.0,-24.811560316983083,0.0,0.0,0.0,,,,
8.78,0.0,0.0,-24.799022836727147,0.0,0.0,0.0,77737.57840619473,,,
8.790000000000001,0.0,0.0,-24.786516608454054,0.0,0.0,0.0,,,,
8.8,0.0,0.0,-24.774041528833294,0.0,0.0,0.0,77703.28028440515,33.49862509998745,-99.3376124767802,2184.13779889114
8.81,0.0,0.0,-24.761597500853068,0.0,0.0,0.0,,,,
8.82,0.0,0.0,-24.750804163731345,0.0,0.0,0.0,77669.05241921528,,,
8.83,0.0,0.0,-24.741064830729925,0.0,0.0,0.0,,,,
8.84,0.0,0.0,-24.731342737937176,0.0,0.0,0.0,77634.89466226533,,,
8.85,0.0,0.0,-24.72163784822333,0.0,0.0,0.0,,,,
8.86,0.0,0.0,-24.71195012456232,0.0,0.0,0.0,77600.80687784519,,,
8.870000000000001,0.0,0.0,-24.70227953003113,0.0,0.0,0.0,,,,
8.88,0.0,0.0,-24.692626027809794,0.0,0.0,0.0,77566.78893184551,,,
8.89,0.0,0.0,-24.682989581180685,0.0,0.0,0.0,,,,
8.9,0.0,0.0,-24.673370153528644,0.0,0.0,0.0,77532.84069060863,33.49862509998745,-99.3376124767802,2201.743071557842
8.91,0.0,0.0,-24.662898925222024,0.0,0.0,0.0,,,,
8.92,0.0,0.0,-24.651589698739244,0.0,0.0,0.0,77498.96201984554,,,
8.93,0.0,0.0,-24.64030608011018,0.0,0.0,0.0,,,,
8.94,0.0,0.0,-24.629047997035737,0.0,0.0,0.0,77465.15277781099,,,
8.950000000000001,0.0,0.0,-24.6178153774815,0.0,0.0,0.0,,,,
8.96,0.0,0.0,-24.606608149676436,0.0,0.0,0.0,77431.41281903126,,,
8.97,0.0,0.0,-24.595426242111763,0.0,0.0,0.0,,,,
8.98,0.0,0.0,-24.58534952870638,0.0,0.0,0.0,77397.74199865591,,,
8.99,0.0,0.0,-24.575910295964817,0.0,0.0,0.0,,,,
9.0,0.0,0.0,-24.566487652075182,0.0,0.0,0.0,77364.14017712441,33.49862509998745,-99.33761247678021,2219.1994362788982
9.01,0.0,0.0,-24.557081561722363,0.0,0.0,0.0,,,,
9.02,0.0,0.0,-24.547691989689007,0.0,0.0,0.0,77330.60722301595,,,
9.03,0.0,0.0,-24.53831890085451,0.0,0.0,0.0,,,,
9.040000000000001,0.0,0.0,-24.528962260195858,0.0,0.0,0.0,77297.14300604723,,,
9.05,0.0,0.0,-24.519622032785854,0.0,0.0,0.0,,,,
9.06,0.0,0.0,-24.51029818379427,0.0,0.0,0.0,77263.74739637019,,,
9.07,0.0,0.0,-24.499911521536042,0.0,0.0,0.0,,,,
9.08,0.0,0.0,-24.488136442100547,0.0,0.0,0.0,77230.42026331335,,,
9.09,0.0,0.0,-24.476390256440283,0.0,0.0,0.0,,,,
9.1,0.0,0.0,-24.464672876560826,0.0,0.0,0.0,77197.16146535384,33.49862509998745,-99.33761247678018,2236.5079282527513
9.11,0.0,0.0,-24.452984214814865,0.0,0.0,0.0,,,,
9.120000000000001,0.0,0.0,-24.443319813358308,0.0,0.0,0.0,77163.97085524564,,,
9.13,0.0,0.0,-24.434137481807046,0.0,0.0,0.0,,,,
9.14,0.0,0.0,-24.424971186495846,0.0,0.0,0.0,77130.848294226,,,
9.15,0.0,0.0,-24.41582089361259,0.0,0.0,0.0,,,,
9.16,0.0,0.0,-24.406686569460824,0.0,0.0,0.0,77097.79365417827,,,
9.17,0.0,0.0,-24.397568180436302,0.0,0.0,0.0,,,,
9.18,0.0,0.0,-24.388465693026696,0.0,0.0,0.0,77064.8068080855,,,
9.19,0.0,0.0,-24.379379073811315,0.0,0.0,0.0,,,,
9.200000000000001,0.0,0.0,-24.37030828946078,0.0,0.0,0.0,77031.88762935183,33.49862509998743,-99.33761247678018,2253.66955845671
9.21,0.0,0.0,-24.36125330673676,0.0,0.0,0.0,,,,
9.22,0.0,0.0,-24.352214092491636,0.0,0.0,0.0,76999.03599180083,,,
9.23,0.0,0.0,-24.343190613668256,0.0,0.0,0.0,,,,
9.24,0.0,0.0,-24.334182837299608,0.0,0.0,0.0,76966.25176967385,,,
9.25,0.0,0.0,-24.325190730508524,0.0,0.0,0.0,,,,
9.26,0.0,0.0,-24.316214260507422,0.0,0.0,0.0,76933.53483762813,,,
9.27,0.0,0.0,-24.307253394598,0.0,0.0,0.0,,,,
9.28,0.0,0.0,-24.297052813498937,0.0,0.0,0.0,76900.88507068742,,,
9.290000000000001,0.0,0.0,-24.285766412466323,0.0,0.0,0.0,,,,
9.3,0.0,0.0,-24.27450742680488,0.0,0.0,0.0,76868.3023384781,33.49862509998743,-99.3376124767802,2270.685288072193
9.31,0.0,0.0,-24.26327577432623,0.0,0.0,0.0,,,,
9.32,0.0,0.0,-24.252071373160497,0.0,0.0,0.0,76835.78649993963,,,
9.33,0.0,0.0,-24.242877319133235,0.0,0.0,0.0,,,,
9.34,0.0,0.0,-24.234051430806282,0.0,0.0,0.0,76803.3374159603,,,
9.35,0.0,0.0,-24.22524082472917,0.0,0.0,0.0,,,,
9.36,0.0,0.0,-24.216445469170985,0.0,0.0,0.0,76770.95495967951,,,
9.370000000000001,0.0,0.0,-24.207665332486712,0.0,0.0,0.0,,,,
9.38,0.0,0.0,-24.198900383116907,0.0,0.0,0.0,76738.63900848216,,,
9.39,0.0,0.0,-24.190150589587418,0.0,0.0,0.0,,,,
9.4,0.0,0.0,-24.181415920509117,0.0,0.0,0.0,76706.38944013571,33.49862509998746,-99.33761247678018,2287.556071455861
9.41,0.0,0.0,-24.172696344577638,0.0,0.0,0.0,,,,
9.42,0.0,0.0,-24.16297329266255,0.0,0.0,0.0,76674.20613276742,,,
9.43,0.0,0.0,-24.15200770651758,0.0,0.0,0.0,,,,
9.44,0.0,0.0,-24.14106857608715,0.0,0.0,0.0,76642.0889597015,,,
9.450000000000001,0.0,0.0,-24.13015582496231,0.0,0.0,0.0,,,,
9.46,0.0,0.0,-24.119269374967402,0.0,0.0,0.0,76610.03778390604,,,
9.47,0.0,0.0,-24.1100412259528,0.0,0.0,0.0,,,,
9.48,0.0,0.0,-24.101452323529323,0.0,0.0,0.0,76578.05246944354,,,
9.49,0.0,0.0,-24.09287821124479,0.0,0.0,0.0,,,,
9.5,0.0,0.0,-24.084318853157477,0.0,0.0,0.0,76546.13289202108,33.49862509998744,-99.33761247678021,2304.2828630717795
9.51,0.0,0.0,-24.075774218964103,0.0,0.0,0.0,,,,
9.52,0.0,0.0,-24.06724427844259,0.0,0.0,0.0,76514.2789320147,,,
9.53,0.0,0.0,-24.05872900145189,0.0,0.0,0.0,,,,
9.540000000000001,0.0,0.0,-24.0502283579317,0.0,0.0,0.0,76482.49047020456,,,
9.55,0.0,0.0,-24.041742317902226,0.0,0.0,0.0,,,,
9.56,0.0,0.0,-24.03327085146403,0.0,0.0,0.0,76450.76738775971,,,
9.57,0.0,0.0,-24.024813928797368,0.0,0.0,0.0,,,,
9.58,0.0,0.0,-24.016371520162416,0.0,0.0,0.0,76419.10956623613,,,
9.59,0.0,0.0,-24.007943595898887,0.0,0.0,0.0,,,,
9.6,0.0,0.0,-23.999530126425597,0.0,0.0,0.0,76387.51688757562,33.49862509998743,-99.3376124767802,2320.8666042725395
9.61,0.0,0.0,-23.99113108224048,0.0,0.0,0.0,,,,
9.620000000000001,0.0,0.0,-23.982746433920134,0.0,0.0,0.0,76355.98923410413,,,
9.63,0.0,0.0,-23.97417481764265,0.0,0.0,0.0,,,,
9.64,0.0,0.0,-23.96365591286697,0.0,0.0,0.0,76324.52648807468,,,
9.65,0.0,0.0,-23.953162152658635,0.0,0.0,0.0,,,,
9.66,0.0,0.0,-23.942693460734574,0.0,0.0,0.0,76293.12852375834,,,
9.67,0.0,0.0,-23.932249763935868,0.0,0.0,0.0,,,,
9.68,0.0,0.0,-23.922498070049755,0.0,0.0,0.0,76261.79520851007,,,
9.69,0.0,0.0,-23.914238193758457,0.0,0.0,0.0,,,,
9.700000000000001,0.0,0.0,-23.905992422760306,0.0,0.0,0.0,76230.52641417671,33.49862509998744,-99.33761247678021,2337.308164569961
9.71,0.0,0.0,-23.897760728500927,0.0,0.0,0.0,,,,
9.72,0.0,0.0,-23.8895430824881,0.0,0.0,0.0,76199.3220235263,,,
9.73,0.0,0.0,-23.881339456305135,0.0,0.0,0.0,,,,
9.74,0.0,0.0,-23.873149821610628,0.0,0.0,0.0,76168.18192139876,,,
9.75,0.0,0.0,-23.864974150138217,0.0,0.0,0.0,,,,
9.76,0.0,0.0,-23.856812413696364,0.0,0.0,0.0,76137.10599299264,,,
9.77,0.0,0.0,-23.84866458416814,0.0,0.0,0.0,,,,
9.78,0.0,0.0,-23.840530633511058,0.0,0.0,0.0,76106.09412387745,,,
9.790000000000001,0.0,0.0,-23.83241053375658,0.0,0.0,0.0,,,,
9.8,0.0,0.0,-23.82430425701003,0.0,0.0,0.0,76075.14619999201,33.498625099987436,-99.3376124767802,2353.6084515249418
9.81,0.0,0.0,-23.816211775450604,0.0,0.0,0.0,,,,
9.82,0.0,0.0,-23.808133061330885,0.0,0.0,0.0,76044.26210764308,,,
9.83,0.0,0.0,-23.79823380141155,0.0,0.0,0.0,,,,
9.84,0.0,0.0,-23.788127795045284,0.0,0.0,0.0,76013.44173088428,,,
9.85,0.0,0.0,-23.778045732579777,0.0,0.0,0.0,,,,
9.86,0.0,0.0,-23.767987544992025,0.0,0.0,0.0,75982.68494492034,,,
9.870000000000001,0.0,0.0,-23.758064399731655,0.0,0.0,0.0,,,,
9.88,0.0,0.0,-23.750091596292734,0.0,0.0,0.0,75951.99162178722,,,
9.89,0.0,0.0,-23.742132312836606,0.0,0.0,0.0,,,,
9.9,0.0,0.0,-23.734186522345187,0.0,0.0,0.0,75921.36164188737,33.49862509998744,-99.33761247678021,2369.7683133877986
9.91,0.0,0.0,-23.726254197869814,0.0,0.0,0.0,,,,
9.92,0.0,0.0,-23.718335312532595,0.0,0.0,0.0,75890.79489328798,,,
9.93,0.0,0.0,-23.7104298395261,0.0,0.0,0.0,,,,
9.94,0.0,0.0,-23.70253775211315,0.0,0.0,0.0,75860.29126469097,,,
9.950000000000001,0.0,0.0,-23.694659023626677,0.0,0.0,0.0,,,,
9.96,0.0,0.0,-23.6867936274693,0.0,0.0,0.0,75829.85064515518,,,
9.97,0.0,0.0,-23.678941537113374,0.0,0.0,0.0,,,,
9.98,0.0,0.0,-23.671102726100628,0.0,0.0,0.0,75799.47292409482,,,
9.99,0.0,0.0,-23.663277168041965,0.0,0.0,0.0,,,,
10.0,0.0,0.0,-23.655464836617274,0.0,0.0,0.0,75769.15799127836,33.49862509998744,-99.3376124767802,2385.7886242751233
10.01,0.0,0.0,-23.647665705575218,0.0,0.0,0.0,,,,
10.02,0.0,0.0,-23.638947108556028,0.0,0.0,0.0,75738.90573678813,,,
10.03,0.0,0.0,-23.629211167603103,0.0,0.0,0.0,,,,
10.040000000000001,0.0,0.0,-23.61949811179901,0.0,0.0,0.0,75708.71604653017,,,
10.05,0.0,0.0,-23.609807876210304,0.0,0.0,0.0,,,,
10.06,0.0,0.0,-23.600140396104173,0.0,0.0,0.0,75678.58879752882,,,
10.07,0.0,0.0,-23.59163695478958,0.0,0.0,0.0,,,,
10.08,0.0,0.0,-23.583952437880445,0.0,0.0,0.0,75648.52386751541,,,
10.09,0.0,0.0,-23.576280861440758,0.0,0.0,0.0,,,,
10.1,0.0,0.0,-23.568622199759965,0.0,0.0,0.0,75618.5211439449,33.49862509998744,-99.33761247678021,2401.670200965477
10.11,0.0,0.0,-23.56097642740191,0.0,0.0,0.0,,,,
10.120000000000001,0.0,0.0,-23.553343518996492,0.0,0.0,0.0,75588.5805188711,,,
10.13,0.0,0.0,-23.54572344923932,0.0,0.0,0.0,,,,
10.14,0.0,0.0,-23.538116192891707,0.0,0.0,0.0,75558.7018847109,,,
10.15,0.0,0.0,-23.53052172478029,0.0,0.0,0.0,,,,
10.16,0.0,0.0,-23.52294001979707,0.0,0.0,0.0,75528.88513422335,,,
10.17,0.0,0.0,-23.515371052899017,0.0,0.0,0.0,,,,
10.18,0.0,0.0,-23.507814799107926,0.0,0.0,0.0,75499.1301605088,,,
10.19,0.0,0.0,-23.500271233510226,0.0,0.0,0.0,,,,
10.200000000000001,0.0,0.0,-23.49274033125676,0.0,0.0,0.0,75469.43685700712,33.498625099987436,-99.3376124767802,2417.413885101177
10.21,0.0,0.0,-23.48522206756261,0.0,0.0,0.0,,,,
10.22,0.0,0.0,-23.476124849749837,0.0,0.0,0.0,75439.80511731426,,,
10.23,0.0,0.0,-23.466764234216505,0.0,0.0,0.0,,,,
10.24,0.0,0.0,-23.457425445532493,0.0,0.0,0.0,75410.2348292655,,,
10.25,0.0,0.0,-23.44810842260965,0.0,0.0,0.0,,,,
10.26,0.0,0.0,-23.438813104561618,0.0,0.0,0.0,75380.725873237,,,
10.27,0.0,0.0,-23.431224012541318,0.0,0.0,0.0,,,,
10.28,0.0,0.0,-23.4238155723195,0.0,0.0,0.0,75351.2781285635,,,
10.290000000000001,0.0,0.0,-23.41641952452205,0.0,0.0,0.0,,,,
10.3,0.0,0.0,-23.409035845034374,0.0,0.0,0.0,75321.8914830015,33.498625099987436,-99.3376124767802,2433.020463666918
10.31,0.0,0.0,-23.40166450980413,0.0,0.0,0.0,,,,
10.32,0.0,0.0,-23.39430549484123,0.0,0.0,0.0,75292.56582740476,,,
10.33,0.0,0.0,-23.386958776217426,0.0,0.0,0.0,,,,
10.34,0.0,0.0,-23.37962433006617,0.0,0.0,0.0,75263.30105299252,,,
10.35,0.0,0.0,-23.372302132582444,0.0,0.0,0.0,,,,
10.36,0.0,0.0,-23.364992160022567,0.0,0.0,0.0,75234.09705136286,,,
10.370000000000001,0.0,0.0,-23.357694388704036,0.0,0.0,0.0,,,,
10.38,0.0,0.0,-23.3504087950053,0.0,0.0,0.0,75204.95371449151,,,
10.39,0.0,0.0,-23.34313535536559,0.0,0.0,0.0,,,,
10.4,0.0,0.0,-23.335874046284736,0.0,0.0,0.0,75175.87093473013,33.49862509998746,-99.33761247678021,2448.4907471042034
10.41,0.0,0.0,-23.328624844322988,0.0,0.0,0.0,,,,
10.42,0.0,0.0,-23.321387726100816,0.0,0.0,0.0,75146.84860480494,,,
10.43,0.0,0.0,-23.314162668298753,0.0,0.0,0.0,,,,
10.44,0.0,0.0,-23.306022378024693,0.0,0.0,0.0,75117.88661777924,,,
10.450000000000001,0.0,0.0,-23.297049859304522,0.0,0.0,0.0,,,,
10.46,0.0,0.0,-23.288098089199405,0.0,0.0,0.0,75088.98486282238,,,
10.47,0.0,0.0,-23.279167010262682,0.0,0.0,0.0,,,,
10.48,0.0,0.0,-23.270256565500198,0.0,0.0,0.0,75060.14322131612,,,
10.49,0.0,0.0,-23.26228759745534,0.0,0.0,0.0,,,,
10.5,0.0,0.0,-23.255167422751608,0.0,0.0,0.0,75031.3615752577,33.49862509998744,-99.33761247678021,2463.825482093654
10.51,0.0,0.0,-23.24805907663322,0.0,0.0,0.0,,,,
10.52,0.0,0.0,-23.240962536435763,0.0,0.0,0.0,75002.6398153003,,,
10.53,0.0,0.0,-23.233877779552625,0.0,0.0,0.0,,,,
10.540000000000001,0.0,0.0,-23.226804783434886,0.0,0.0,0.0,74973.97783656974,,,
10.55,0.0,0.0,-23.21974352559114,0.0,0.0,0.0,,,,
10.56,0.0,0.0,-23.212693983587357,0.0,0.0,0.0,74945.37553456007,,,
10.57,0.0,0.0,-23.205656135046652,0.0,0.0,0.0,,,,
10.58,0.0,0.0,-23.198629957649224,0.0,0.0,0.0,74916.83280512673,,,
10.59,0.0,0.0,-23.19161542913197,0.0,0.0,0.0,,,,
10.6,0.0,0.0,-23.18461252728859,0.0,0.0,0.0,74888.3495444852,33.49862509998744,-99.33761247678018,2479.0254509144734
10.61,0.0,0.0,-23.177621229969226,0.0,0.0,0.0,,,,
10.620000000000001,0.0,0.0,-23.170641515080362,0.0,0.0,0.0,74859.92564920965,,,
10.63,0.0,0.0,-23.163673360584646,0.0,0.0,0.0,,,,
10.64,0.0,0.0,-23.155944398307078,0.0,0.0,0.0,74831.56101620411,,,
10.65,0.0,0.0,-23.1473117308918,0.0,0.0,0.0,,,,
10.66,0.0,0.0,-23.138698881614108,0.0,0.0,0.0,74803.25553894363,,,
10.67,0.0,0.0,-23.130105796542217,0.0,0.0,0.0,,,,
10.68,0.0,0.0,-23.121532421997834,0.0,0.0,0.0,74775.00910337587,,,
10.69,0.0,0.0,-23.113660071705873,0.0,0.0,0.0,,,,
10.700000000000001,0.0,0.0,-23.10679252272041,0.0,0.0,0.0,74746.82159571213,33.49862509998744,-99.33761247678021,2494.0913833501995
10.71,0.0,0.0,-23.09993631459007,0.0,0.0,0.0,,,,
10.72,0.0,0.0,-23.093091425949616,0.0,0.0,0.0,74718.69291006164,,,
10.73,0.0,0.0,-23.08625783542917,0.0,0.0,0.0,,,,
10.74,0.0,0.0,-23.07943552171283,0.0,0.0,0.0,74690.62294525818,,,
10.75,0.0,0.0,-23.072624463538524,0.0,0.0,0.0,,,,
10.76,0.0,0.0,-23.065824639697837,0.0,0.0,0.0,74662.61160052662,,,
10.77,0.0,0.0,-23.059036029035873,0.0,0.0,0.0,,,,
10.78,0.0,0.0,-23.052258610451098,0.0,0.0,0.0,74634.65877543828,,,
10.790000000000001,0.0,0.0,-23.04549236289515,0.0,0.0,0.0,,,,
10.8,0.0,0.0,-23.038737265372703,0.0,0.0,0.0,74606.7643699094,33.49862509998744,-99.3376124767802,2509.0240335501903
10.81,0.0,0.0,-23.031993296941327,0.0,0.0,0.0,,,,
10.82,0.0,0.0,-23.025260436711285,0.0,0.0,0.0,74578.9282841999,,,
10.83,0.0,0.0,-23.01853866384543,0.0,0.0,0.0,,,,
10.84,0.0,0.0,-23.01182795755901,0.0,0.0,0.0,74551.15041891189,,,
10.85,0.0,0.0,-23.00512829711953,0.0,0.0,0.0,,,,
10.86,0.0,0.0,-22.998439661846604,0.0,0.0,0.0,74523.43067498849,,,
10.870000000000001,0.0,0.0,-22.990741810736917,0.0,0.0,0.0,,,,
10.88,0.0,0.0,-22.982479959346612,0.0,0.0,0.0,74495.76895255585,,,
10.89,0.0,0.0,-22.974236923668443,0.0,0.0,0.0,,,,
10.9,0.0,0.0,-22.9660126561485,0.0,0.0,0.0,74468.1651445932,33.498625099987436,-99.33761247678018,2523.8241000005555
10.91,0.0,0.0,-22.95780710662222,0.0,0.0,0.0,,,,
10.92,0.0,0.0,-22.95046028842056,0.0,0.0,0.0,74440.61914127733,,,
10.93,0.0,0.0,-22.94386766007908,0.0,0.0,0.0,,,,
10.94,0.0,0.0,-22.937285850511422,0.0,0.0,0.0,74413.13083706908,,,
10.950000000000001,0.0,0.0,-22.930714839636252,0.0,0.0,0.0,,,,
10.96,0.0,0.0,-22.924154607393145,0.0,0.0,0.0,74385.70013398246,,,
10.97,0.0,0.0,-22.917605133771715,0.0,0.0,0.0,,,,
10.98,0.0,0.0,-22.911066398811656,0.0,0.0,0.0,74358.32693514967,,,
10.99,0.0,0.0,-22.90453838260244,0.0,0.0,0.0,,,,
11.0,0.0,0.0,-22.898021065283217,0.0,0.0,0.0,74331.01114403384,33.49862509998746,-99.33761247678022,2538.4922987604323
11.01,0.0,0.0,-22.89151442704265,0.0,0.0,0.0,,,,
11.02,0.0,0.0,-22.885018448118792,0.0,0.0,0.0,74303.7526644275,,,
11.03,0.0,0.0,-22.87853310879893,0.0,0.0,0.0,,,,
11.040000000000001,0.0,0.0,-22.872058389419436,0.0,0.0,0.0,74276.55140045138,,,
11.05,0.0,0.0,-22.865594270365644,0.0,0.0,0.0,,,,
11.06,0.0,0.0,-22.859140732071694,0.0,0.0,0.0,74249.40725655305,,,
11.07,0.0,0.0,-22.85248828538844,0.0,0.0,0.0,,,,
11.08,0.0,0.0,-22.84453434673602,0.0,0.0,0.0,74222.32013715574,,,
11.09,0.0,0.0,-22.83659840898364,0.0,0.0,0.0,,,,
11.1,0.0,0.0,-22.828680424752477,0.0,0.0,0.0,74195.28994110333,33.49862509998744,-99.33761247678021,2553.029320370436
11.11,0.0,0.0,-22.820780346712024,0.0,0.0,0.0,,,,
11.120000000000001,0.0,0.0,-22.812898127694908,0.0,0.0,0.0,74168.31656270774,,,
11.13,0.0,0.0,-22.80650762637056,0.0,0.0,0.0,,,,
11.14,0.0,0.0,-22.800156664374484,0.0,0.0,0.0,74141.39989834887,,,
11.15,0.0,0.0,-22.79381606851208,0.0,0.0,0.0,,,,
11.16,0.0,0.0,-22.787485819798945,0.0,0.0,0.0,74114.53985233998,,,
11.17,0.0,0.0,-22.781165899297626,0.0,0.0,0.0,,,,
11.18,0.0,0.0,-22.774856288117462,0.0,0.0,0.0,74087.73633124794,,,
11.19,0.0,0.0,-22.76855696741449,0.0,0.0,0.0,,,,
11.200000000000001,0.0,0.0,-22.762267918391235,0.0,0.0,0.0,74060.98924193661,33.498625099987436,-99.33761247678021,2567.4358526146107
11.21,0.0,0.0,-22.755989122296867,0.0,0.0,0.0,,,,
11.22,0.0,0.0,-22.74972056042664,0.0,0.0,0.0,74034.2984915862,,,
11.23,0.0,0.0,-22.743462214121937,0.0,0.0,0.0,,,,
11.24,0.0,0.0,-22.73721406477036,0.0,0.0,0.0,74007.66398769146,,,
11.25,0.0,0.0,-22.730976093805275,0.0,0.0,0.0,,,,
11.26,0.0,0.0,-22.724748282705768,0.0,0.0,0.0,73981.08563806108,,,
11.27,0.0,0.0,-22.71853061299663,0.0,0.0,0.0,,,,
11.28,0.0,0.0,-22.712323066248125,0.0,0.0,0.0,73954.56335081598,,,
11.290000000000001,0.0,0.0,-22.706125624075888,0.0,0.0,0.0,,,,
11.3,0.0,0.0,-22.699938268140777,0.0,0.0,0.0,73928.09703438847,33.49862509998745,-99.3376124767802,2581.712564380509
11.31,0.0,0.0,-22.69376098014881,0.0,0.0,0.0,,,,
11.32,0.0,0.0,-22.68759374185089,0.0,0.0,0.0,73901.68659752101,,,
11.33,0.0,0.0,-22.681107746632183,0.0,0.0,0.0,,,,
11.34,0.0,0.0,-22.67353216929635,0.0,0.0,0.0,73875.33194885701,,,
11.35,0.0,0.0,-22.66597360450087,0.0,0.0,0.0,,,,
11.36,0.0,0.0,-22.658432008168518,0.0,0.0,0.0,73849.03299151444,,,
11.370000000000001,0.0,0.0,-22.650907336347004,0.0,0.0,0.0,,,,
11.38,0.0,0.0,-22.64341469771365,0.0,0.0,0.0,73822.78962475169,,,
11.39,0.0,0.0,-22.637335063031685,0.0,0.0,0.0,,,,
11.4,0.0,0.0,-22.63126529297599,0.0,0.0,0.0,73796.60174989149,33.49862509998745,-99.33761247678021,2595.860087941091
11.41,0.0,0.0,-22.62520537204192,0.0,0.0,0.0,,,,
11.42,0.0,0.0,-22.619155282516765,0.0,0.0,0.0,73770.46927564283,,,
11.43,0.0,0.0,-22.61311500673117,0.0,0.0,0.0,,,,
11.44,0.0,0.0,-22.607084527058937,0.0,0.0,0.0,73744.39211273854,,,
11.450000000000001,0.0,0.0,-22.60106382591693,0.0,0.0,0.0,,,,
11.46,0.0,0.0,-22.59505288576493,0.0,0.0,0.0,73718.37017221274,,,
11.47,0.0,0.0,-22.58905168910551,0.0,0.0,0.0,,,,
11.48,0.0,0.0,-22.58306021848395,0.0,0.0,0.0,73692.40336539943,,,
11.49,0.0,0.0,-22.57707845648808,0.0,0.0,0.0,,,,
11.5,0.0,0.0,-22.571106385748195,0.0,0.0,0.0,73666.49160393143,33.49862509998744,-99.33761247678021,2609.8790896543264
11.51,0.0,0.0,-22.565143988936896,0.0,0.0,0.0,,,,
11.52,0.0,0.0,-22.559191248768983,0.0,0.0,0.0,73640.6347997392,,,
11.53,0.0,0.0,-22.553248148001373,0.0,0.0,0.0,,,,
11.540000000000001,0.0,0.0,-22.5473146694329,0.0,0.0,0.0,73614.83286504986,,,
11.55,0.0,0.0,-22.541390795904256,0.0,0.0,0.0,,,,
11.56,0.0,0.0,-22.535476510297883,0.0,0.0,0.0,73589.08571238587,,,
11.57,0.0,0.0,-22.528696653885124,0.0,0.0,0.0,,,,
11.58,0.0,0.0,-22.521455204977944,0.0,0.0,0.0,73563.3932536323,,,
11.59,0.0,0.0,-22.514229910714946,0.0,0.0,0.0,,,,
11.6,0.0,0.0,-22.50702072989189,0.0,0.0,0.0,73537.75539459851,33.49862509998744,-99.33761247678021,2623.7701838420417
11.61,0.0,0.0,-22.499827621442112,0.0,0.0,0.0,,,,
11.620000000000001,0.0,0.0,-22.493148475243792,0.0,0.0,0.0,73512.17203881741,,,
11.63,0.0,0.0,-22.487317792522482,0.0,0.0,0.0,,,,
11.64,0.0,0.0,-22.481496525893924,0.0,0.0,0.0,73486.64309293611,,,
11.65,0.0,0.0,-22.475684658704573,0.0,0.0,0.0,,,,
11.66,0.0,0.0,-22.469882174335066,0.0,0.0,0.0,73461.16847016715,,,
11.67,0.0,0.0,-22.46408905620624,0.0,0.0,0.0,,,,
11.68,0.0,0.0,-22.458305287778934,0.0,0.0,0.0,73435.74808493766,,,
11.69,0.0,0.0,-22.452530852554048,0.0,0.0,0.0,,,,
11.700000000000001,0.0,0.0,-22.446765734072294,0.0,0.0,0.0,73410.38185195379,33.498625099987436,-99.33761247678022,2637.5340026235617
11.71,0.0,0.0,-22.441009915914137,0.0,0.0,0.0,,,,
11.72,0.0,0.0,-22.43526338169965,0.0,0.0,0.0,73385.06968620773,,,
11.73,0.0,0.0,-22.429526115088464,0.0,0.0,0.0,,,,
11.74,0.0,0.0,-22.423798099779596,0.0,0.0,0.0,73359.81150297656,,,
11.75,0.0,0.0,-22.41807931951137,0.0,0.0,0.0,,,,
11.76,0.0,0.0,-22.412369758061295,0.0,0.0,0.0,73334.60721782118,,,
11.77,0.0,0.0,-22.40666939924597,0.0,0.0,0.0,,,,
11.78,0.0,0.0,-22.400978226920962,0.0,0.0,0.0,73309.45674658533,,,
11.790000000000001,0.0,0.0,-22.395296224980697,0.0,0.0,0.0,,,,
11.8,0.0,0.0,-22.38962337735836,0.0,0.0,0.0,73284.36000539453,33.49862509998745,-99.3376124767802,2651.1711561295792
11.81,0.0,0.0,-22.383959668025796,0.0,0.0,0.0,,,,
11.82,0.0,0.0,-22.378305080993364,0.0,0.0,0.0,73259.31691065498,,,
11.83,0.0,0.0,-22.372464653101673,0.0,0.0,0.0,,,,
11.84,0.0,0.0,-22.365562583767407,0.0,0.0,0.0,73234.3273787444,,,
11.85,0.0,0.0,-22.358675819207924,0.0,0.0,0.0,,,,
11.86,0.0,0.0,-22.351804314518738,0.0,0.0,0.0,73209.39132142931,,,
11.870000000000001,0.0,0.0,-22.344948031481856,0.0,0.0,0.0,,,,
11.88,0.0,0.0,-22.33810693199443,0.0,0.0,0.0,73184.50864680878,,,
11.89,0.0,0.0,-22.332304331097493,0.0,0.0,0.0,,,,
11.9,0.0,0.0,-22.326738266713754,0.0,0.0,0.0,73159.67926445442,33.498625099987436,-99.33761247678018,2664.682223443308
11.91,0.0,0.0,-22.321181148214702,0.0,0.0,0.0,,,,
11.92,0.0,0.0,-22.315632960071845,0.0,0.0,0.0,73134.9030902771,,,
11.93,0.0,0.0,-22.310093686793316,0.0,0.0,0.0,,,,
11.94,0.0,0.0,-22.30456331292425,0.0,0.0,0.0,73110.18004244198,,,
11.950000000000001,0.0,0.0,-22.299041823046792,0.0,0.0,0.0,,,,
11.96,0.0,0.0,-22.29352920177986,0.0,0.0,0.0,73085.51003942985,,,
11.97,0.0,0.0,-22.2880254337791,0.0,0.0,0.0,,,,
11.98,0.0,0.0,-22.282530503736815,0.0,0.0,0.0,73060.89299999326,,,
11.99,0.0,0.0,-22.277044396381854,0.0,0.0,0.0,,,,
12.0,0.0,0.0,-22.271567096479473,0.0,0.0,0.0,73036.32884315579,33.49862509998745,-99.3376124767802,2678.067814778339
12.01,0.0,0.0,-22.266098588831277,0.0,0.0,0.0,,,,
12.02,0.0,0.0,-22.260638858275065,0.0,0.0,0.0,73011.81748821096,,,
12.030000000000001,0.0,0.0,-22.255187889684784,0.0,0.0,0.0,,,,
12.040000000000001,0.0,0.0,-22.249745667970423,0.0,0.0,0.0,72987.35885472104,,,
12.05,0.0,0.0,-22.244312178077884,0.0,0.0,0.0,,,,
12.06,0.0,0.0,-22.238887404988915,0.0,0.0,0.0,72962.95286251637,,,
12.07,0.0,0.0,-22.233471333721003,0.0,0.0,0.0,,,,
12.08,0.0,0.0,-22.228063949327247,0.0,0.0,0.0,72938.59943169422,,,
12.09,0.0,0.0,-22.222665236896308,0.0,0.0,0.0,,,,
12.1,0.0,0.0,-22.217275181552324,0.0,0.0,0.0,72914.29848261792,33.49862509998744,-99.3376124767802,2691.3284929605143
12.11,0.0,0.0,-22.211893768454654,0.0,0.0,0.0,,,,
12.120000000000001,0.0,0.0,-22.206520982798022,0.0,0.0,0.0,72890.0499359157,,,
12.13,0.0,0.0,-22.200375138226843,0.0,0.0,0.0,,,,
12.14,0.0,0.0,-22.193844214305344,0.0,0.0,0.0,72865.85371174641,,,
12.15,0.0,0.0,-22.187327669717032,0.0,0.0,0.0,,,,
12.16,0.0,0.0,-22.180825469114943,0.0,0.0,0.0,72841.7097248627,,,
12.17,0.0,0.0,-22.17433757726515,0.0,0.0,0.0,,,,
12.18,0.0,0.0,-22.168168816447352,0.0,0.0,0.0,72817.61788807031,,,
12.19,0.0,0.0,-22.162871272861636,0.0,0.0,0.0,,,,
12.200000000000001,0.0,0.0,-22.15758220742331,0.0,0.0,0.0,72793.57811662614,33.49862509998744,-99.3376124767802,2704.4648094185186
12.21,0.0,0.0,-22.152301605720737,0.0,0.0,0.0,,,,
12.22,0.0,0.0,-22.1470294533703,0.0,0.0,0.0,72769.59033165599,,,
12.23,0.0,0.0,-22.141765736022364,0.0,0.0,0.0,,,,
12.24,0.0,0.0,-22.136510439361246,0.0,0.0,0.0,72745.6544554886,,,
12.25,0.0,0.0,-22.131263549105004,0.0,0.0,0.0,,,,
12.26,0.0,0.0,-22.12602505100535,0.0,0.0,0.0,72721.77041071054,,,
12.27,0.0,0.0,-22.1207949308478,0.0,0.0,0.0,,,,
12.280000000000001,0.0,0.0,-22.115573174451256,0.0,0.0,0.0,72697.93812016521,,,
12.290000000000001,0.0,0.0,-22.110359767668037,0.0,0.0,0.0,,,,
12.3,0.0,0.0,-22.10515469638397,0.0,0.0,0.0,72674.15750695181,33.49862509998743,-99.3376124767802,2717.477343736462
12.31,0.0,0.0,-22.099957946518018,0.0,0.0,0.0,,,,
12.32,0.0,0.0,-22.094769504022267,0.0,0.0,0.0,72650.42849442479,,,
12.33,0.0,0.0,-22.089589354882012,0.0,0.0,0.0,,,,
12.34,0.0,0.0,-22.08441748511548,0.0,0.0,0.0,72626.7510061925,,,
12.35,0.0,0.0,-22.079253880773805,0.0,0.0,0.0,,,,
12.36,0.0,0.0,-22.074098527940944,0.0,0.0,0.0,72603.12496611674,,,
12.370000000000001,0.0,0.0,-22.06865604834171,0.0,0.0,0.0,,,,
12.38,0.0,0.0,-22.062407451311447,0.0,0.0,0.0,72579.55029797004,,,
12.39,0.0,0.0,-22.056172547650423,0.0,0.0,0.0,,,,
12.4,0.0,0.0,-22.04995130384067,0.0,0.0,0.0,72556.02692125567,33.498625099987464,-99.3376124767802,2730.3666297103314
12.41,0.0,0.0,-22.04374368684916,0.0,0.0,0.0,,,,
12.42,0.0,0.0,-22.03754966374808,0.0,0.0,0.0,72532.55475258794,,,
12.43,0.0,0.0,-22.032258744813156,0.0,0.0,0.0,,,,
12.44,0.0,0.0,-22.027183466981192,0.0,0.0,0.0,72509.1337098813,,,
12.450000000000001,0.0,0.0,-22.022116286487886,0.0,0.0,0.0,,,,
12.46,0.0,0.0,-22.017057189810288,0.0,0.0,0.0,72485.76371660433,,,
12.47,0.0,0.0,-22.012006163456892,0.0,0.0,0.0,,,,
12.48,0.0,0.0,-22.00696319396779,0.0,0.0,0.0,72462.44469822026,,,
12.49,0.0,0.0,-22.001928267914522,0.0,0.0,0.0,,,,
12.5,0.0,0.0,-21.996901371900062,0.0,0.0,0.0,72439.17658046132,33.49862509998743,-99.3376124767802,2743.133215338996
12.51,0.0,0.0,-21.99188249255868,0.0,0.0,0.0,,,,
12.52,0.0,0.0,-21.986871616555906,0.0,0.0,0.0,72415.95928930517,,,
12.530000000000001,0.0,0.0,-21.981868730588396,0.0,0.0,0.0,,,,
12.540000000000001,0.0,0.0,-21.976873821383883,0.0,0.0,0.0,72392.7927509742,,,
12.55,0.0,0.0,-21.97188687570109,0.0,0.0,0.0,,,,
12.56,0.0,0.0,-21.96690788032965,0.0,0.0,0.0,72369.67689193453,,,
12.57,0.0,0.0,-21.961936822090006,0.0,0.0,0.0,,,,
12.58,0.0,0.0,-21.956973687833326,0.0,0.0,0.0,72346.61163889535,,,
12.59,0.0,0.0,-21.952018464441455,0.0,0.0,0.0,,,,
12.6,0.0,0.0,-21.94707113882681,0.0,0.0,0.0,72323.59691880777,33.49862509998744,-99.3376124767802,2755.777634338884
12.61,0.0,0.0,-21.94213169793231,0.0,0.0,0.0,,,,
12.620000000000001,0.0,0.0,-21.93720012873127,0.0,0.0,0.0,72300.63265886434,,,
12.63,0.0,0.0,-21.932276418227353,0.0,0.0,0.0,,,,
12.64,0.0,0.0,-21.927360553454463,0.0,0.0,0.0,72277.71878649792,,,
12.65,0.0,0.0,-21.922452521476682,0.0,0.0,0.0,,,,
12.66,0.0,0.0,-21.917552309388185,0.0,0.0,0.0,72254.855229381,,,
12.67,0.0,0.0,-21.912531568667028,0.0,0.0,0.0,,,,
12.68,0.0,0.0,-21.906615250340412,0.0,0.0,0.0,72232.04191519678,,,
12.69,0.0,0.0,-21.900711840228844,0.0,0.0,0.0,,,,
12.700000000000001,0.0,0.0,-21.894821299729397,0.0,0.0,0.0,72209.27876799536,33.49862509998745,-99.33761247678018,2768.3003857476688
12.71,0.0,0.0,-21.88894359794893,0.0,0.0,0.0,,,,
12.72,0.0,0.0,-21.88307870445441,0.0,0.0,0.0,72186.56570879587,,,
12.73,0.0,0.0,-21.877844488803934,0.0,0.0,0.0,,,,
12.74,0.0,0.0,-21.87302014391896,0.0,0.0,0.0,72163.90265940399,,,
12.75,0.0,0.0,-21.868203475649274,0.0,0.0,0.0,,,,
12.76,0.0,0.0,-21.863394471419845,0.0,0.0,0.0,72141.2895468241,,,
12.77,0.0,0.0,-21.858593118714516,0.0,0.0,0.0,,,,
12.780000000000001,0.0,0.0,-21.853799405046097,0.0,0.0,0.0,72118.72630018943,,,
12.790000000000001,0.0,0.0,-21.849013317956306,0.0,0.0,0.0,,,,
12.8,0.0,0.0,-21.844234845015684,0.0,0.0,0.0,72096.21284894164,33.49862509998745,-99.3376124767802,2780.701989377837
12.81,0.0,0.0,-21.839463973823495,0.0,0.0,0.0,,,,
12.82,0.0,0.0,-21.834700692007686,0.0,0.0,0.0,72073.74912275482,,,
12.83,0.0,0.0,-21.829944987224806,0.0,0.0,0.0,,,,
12.84,0.0,0.0,-21.825196847159887,0.0,0.0,0.0,72051.33505153474,,,
12.85,0.0,0.0,-21.820456259526445,0.0,0.0,0.0,,,,
12.86,0.0,0.0,-21.81572321206634,0.0,0.0,0.0,72028.970565418,,,
12.870000000000001,0.0,0.0,-21.810997692549748,0.0,0.0,0.0,,,,
12.88,0.0,0.0,-21.806279688775042,0.0,0.0,0.0,72006.6555947713,,,
12.89,0.0,0.0,-21.80156918856877,0.0,0.0,0.0,,,,
12.9,0.0,0.0,-21.796866179785525,0.0,0.0,0.0,71984.39007019058,33.49862509998744,-99.33761247678018,2792.9829530351217
12.91,0.0,0.0,-21.792170650307924,0.0,0.0,0.0,,,,
12.92,0.0,0.0,-21.787482588046494,0.0,0.0,0.0,71962.17392250034,,,
12.93,0.0,0.0,-21.782801980939638,0.0,0.0,0.0,,,,
12.94,0.0,0.0,-21.77812881695354,0.0,0.0,0.0,71940.00708275274,,,
12.950000000000001,0.0,0.0,-21.77346308408208,0.0,0.0,0.0,,,,
12.96,0.0,0.0,-21.76880477034673,0.0,0.0,0.0,71917.88948222692,,,
12.97,0.0,0.0,-21.764153863796597,0.0,0.0,0.0,,,,
12.98,0.0,0.0,-21.758901062662275,0.0,0.0,0.0,71895.82105237343,,,
12.99,0.0,0.0,-21.753310076441938,0.0,0.0,0.0,,,,
13.0,0.0,0.0,-21.747731228031824,0.0,0.0,0.0,71873.80172237536,33.49862509998745,-99.3376124767802,2805.1437509583884
13.01,0.0,0.0,-21.742164490341167,0.0,0.0,0.0,,,,
13.02,0.0,0.0,-21.736609835202934,0.0,0.0,0.0,71851.83141765892,,,
13.030000000000001,0.0,0.0,-21.731119616849348,0.0,0.0,0.0,,,,
13.040000000000001,0.0,0.0,-21.72653325576748,0.0,0.0,0.0,71829.91006372604,,,
13.05,0.0,0.0,-21.721954178214396,0.0,0.0,0.0,,,,
13.06,0.0,0.0,-21.717382374832088,0.0,0.0,0.0,71808.037589775,,,
13.07,0.0,0.0,-21.71281783400022,0.0,0.0,0.0,,,,
13.08,0.0,0.0,-21.708260544125075,0.0,0.0,0.0,71786.21392841976,,,
13.09,0.0,0.0,-21.70371049363951,0.0,0.0,0.0,,,,
13.1,0.0,0.0,-21.699167671002847,0.0,0.0,0.0,71764.43901261463,33.49862509998744,-99.3376124767802,2817.18487479353
13.11,0.0,0.0,-21.694632064700855,0.0,0.0,0.0,,,,
13.120000000000001,0.0,0.0,-21.690103663245637,0.0,0.0,0.0,71742.71277553428,,,
13.13,0.0,0.0,-21.68558245517557,0.0,0.0,0.0,,,,
13.14,0.0,0.0,-21.681068429055276,0.0,0.0,0.0,71721.03515057295,,,
13.15,0.0,0.0,-21.676561573475503,0.0,0.0,0.0,,,,
13.16,0.0,0.0,-21.67206187705311,0.0,0.0,0.0,71699.4060713438,,,
13.17,0.0,0.0,-21.667569328430936,0.0,0.0,0.0,,,,
13.18,0.0,0.0,-21.663083916277742,0.0,0.0,0.0,71677.82547167802,,,
13.19,0.0,0.0,-21.658605629288232,0.0,0.0,0.0,,,,
13.200000000000001,0.0,0.0,-21.654134456182902,0.0,0.0,0.0,71656.29328562414,33.49862509998746,-99.33761247678021,2829.106809195502
13.21,0.0,0.0,-21.649670385707996,0.0,0.0,0.0,,,,
13.22,0.0,0.0,-21.645213406635442,0.0,0.0,0.0,71634.80944744748,,,
13.23,0.0,0.0,-21.640763507762784,0.0,0.0,0.0,,,,
13.24,0.0,0.0,-21.636320677913112,0.0,0.0,0.0,71613.37389162925,,,
13.25,0.0,0.0,-21.631884905934996,0.0,0.0,0.0,,,,
13.26,0.0,0.0,-21.62745618070244,0.0,0.0,0.0,71591.98655286583,,,
13.27,0.0,0.0,-21.6230344911148,0.0,0.0,0.0,,,,
13.280000000000001,0.0,0.0,-21.618619826096726,0.0,0.0,0.0,71570.64736606815,,,
13.290000000000001,0.0,0.0,-21.613496122640605,0.0,0.0,0.0,,,,
13.3,0.0,0.0,-21.608211438840428,0.0,0.0,0.0,71549.35626557273,33.49862509998744,-99.33761247678021,2840.9100050007028
13.31,0.0,0.0,-21.602938192322995,0.0,0.0,0.0,,,,
13.32,0.0,0.0,-21.597676356982866,0.0,0.0,0.0,71528.11318171686,,,
13.33,0.0,0.0,-21.592425906793537,0.0,0.0,0.0,,,,
13.34,0.0,0.0,-21.58733144843921,0.0,0.0,0.0,71506.91804370412,,,
13.35,0.0,0.0,-21.582977946696737,0.0,0.0,0.0,,,,
13.36,0.0,0.0,-21.578631356890064,0.0,0.0,0.0,71485.77078235525,,,
13.370000000000001,0.0,0.0,-21.57429166808184,0.0,0.0,0.0,,,,
13.38,0.0,0.0,-21.569958869500148,0.0,0.0,0.0,71464.67133292528,,,
13.39,0.0,0.0,-21.56563295039757,0.0,0.0,0.0,,,,
13.4,0.0,0.0,-21.561313900051054,0.0,0.0,0.0,71443.61963169821,33.49862509998744,-99.3376124767802,2852.5949258394335
13.41,0.0,0.0,-21.55700170776186,0.0,0.0,0.0,,,,
13.42,0.0,0.0,-21.5526963628555,0.0,0.0,0.0,71422.61561516757,,,
13.43,0.0,0.0,-21.54839785468169,0.0,0.0,0.0,,,,
13.44,0.0,0.0,-21.544106172614278,0.0,0.0,0.0,71401.65922003525,,,
13.450000000000001,0.0,0.0,-21.53982130605118,0.0,0.0,0.0,,,,
13.46,0.0,0.0,-21.535543244414335,0.0,0.0,0.0,71380.7503832108,,,
13.47,0.0,0.0,-21.531271977149622,0.0,0.0,0.0,,,,
13.48,0.0,0.0,-21.527007493726824,0.0,0.0,0.0,71359.8890418109,,,
13.49,0.0,0.0,-21.522749783639547,0.0,0.0,0.0,,,,
13.5,0.0,0.0,-21.51849883640517,0.0,0.0,0.0,71339.07513315843,33.49862509998744,-99.33761247678021,2864.1620353910494
13.51,0.0,0.0,-21.514254641564786,0.0,0.0,0.0,,,,
13.52,0.0,0.0,-21.510017188683143,0.0,0.0,0.0,71318.30859478204,,,
13.530000000000001,0.0,0.0,-21.50578646734857,0.0,0.0,0.0,,,,
13.540000000000001,0.0,0.0,-21.501562467172946,0.0,0.0,0.0,71297.58936441534,,,
13.55,0.0,0.0,-21.49734517779161,0.0,0.0,0.0,,,,
13.56,0.0,0.0,-21.493134588863317,0.0,0.0,0.0,71276.91737999627,,,
13.57,0.0,0.0,-21.48893069007019,0.0,0.0,0.0,,,,
13.58,0.0,0.0,-21.484733471117636,0.0,0.0,0.0,71256.29257966643,,,
13.59,0.0,0.0,-21.480542921734312,0.0,0.0,0.0,,,,
13.6,0.0,0.0,-21.476359031672054,0.0,0.0,0.0,71235.71490177047,33.49862509998745,-99.3376124767802,2875.6117626434507
13.61,0.0,0.0,-21.472181790705815,0.0,0.0,0.0,,,,
13.620000000000001,0.0,0.0,-21.468011188633614,0.0,0.0,0.0,71215.18428485528,,,
13.63,0.0,0.0,-21.463198747979153,0.0,0.0,0.0,,,,
13.64,0.0,0.0,-21.458229164409843,0.0,0.0,0.0,71194.7006669507,,,
13.65,0.0,0.0,-21.45327031182722,0.0,0.0,0.0,,,,
13.66,0.0,0.0,-21.448322166250463,0.0,0.0,0.0,71174.26398246452,,,
13.67,0.0,0.0,-21.443384703769997,0.0,0.0,0.0,,,,
13.68,0.0,0.0,-21.4385290710378,0.0,0.0,0.0,71153.87416473668,,,
13.69,0.0,0.0,-21.43441621042775,0.0,0.0,0.0,,,,
13.700000000000001,0.0,0.0,-21.430309884535262,0.0,0.0,0.0,71133.53114847225,33.49862509998744,-99.3376124767802,2886.944535275805
13.71,0.0,0.0,-21.4262100834002,0.0,0.0,0.0,,,,
13.72,0.0,0.0,-21.422116797097498,0.0,0.0,0.0,71113.23487246665,,,
13.73,0.0,0.0,-21.418030015724355,0.0,0.0,0.0,,,,
13.74,0.0,0.0,-21.413949729400244,0.0,0.0,0.0,71092.98527656146,,,
13.75,0.0,0.0,-21.40987592826682,0.0,0.0,0.0,,,,
13.76,0.0,0.0,-21.405808602487895,0.0,0.0,0.0,71072.7823007957,,,
13.77,0.0,0.0,-21.40174774224934,0.0,0.0,0.0,,,,
13.780000000000001,0.0,0.0,-21.39769333775904,0.0,0.0,0.0,71052.62588540502,,,
13.790000000000001,0.0,0.0,-21.39364537924691,0.0,0.0,0.0,,,,
13.8,0.0,0.0,-21.389603856964747,0.0,0.0,0.0,71032.51597082117,33.49862509998743,-99.33761247678021,2898.160800949137
13.81,0.0,0.0,-21.385568761186242,0.0,0.0,0.0,,,,
13.82,0.0,0.0,-21.381540082206882,0.0,0.0,0.0,71012.45249767137,,,
13.83,0.0,0.0,-21.377517810343917,0.0,0.0,0.0,,,,
13.84,0.0,0.0,-21.3735019359363,0.0,0.0,0.0,70992.43540677775,,,
13.85,0.0,0.0,-21.369492449344648,0.0,0.0,0.0,,,,
13.86,0.0,0.0,-21.365489340951157,0.0,0.0,0.0,70972.46463915653,,,
13.870000000000001,0.0,0.0,-21.36149260115959,0.0,0.0,0.0,,,,
13.88,0.0,0.0,-21.35750222039518,0.0,0.0,0.0,70952.54013601765,,,
13.89,0.0,0.0,-21.353518189104623,0.0,0.0,0.0,,,,
13.9,0.0,0.0,-21.34954049775598,0.0,0.0,0.0,70932.66183876393,33.49862509998744,-99.3376124767802,2909.2609733018035
13.91,0.0,0.0,-21.345569136838666,0.0,0.0,0.0,,,,
13.92,0.0,0.0,-21.341604096863364,0.0,0.0,0.0,70912.8296889906,,,
13.93,0.0,0.0,-21.337645368361994,0.0,0.0,0.0,,,,
13.94,0.0,0.0,-21.333692941887648,0.0,0.0,0.0,70893.04362848467,,,
13.950000000000001,0.0,0.0,-21.329746808014548,0.0,0.0,0.0,,,,
13.96,0.0,0.0,-21.325806957337985,0.0,0.0,0.0,70873.30359922424,,,
13.97,0.0,0.0,-21.321873380474273,0.0,0.0,0.0,,,,
13.98,0.0,0.0,-21.317946068060706,0.0,0.0,0.0,70853.60954337798,,,
13.99,0.0,0.0,-21.314025010755486,0.0,0.0,0.0,,,,
14.0,0.0,0.0,-21.30934623159976,0.0,0.0,0.0,70833.96140327142,33.49862509998745,-99.3376124767802,2920.2454529797915
14.01,0.0,0.0,-21.303956821871388,0.0,0.0,0.0,,,,
14.02,0.0,0.0,-21.298581338048084,0.0,0.0,0.0,70814.35911801342,,,
14.030000000000001,0.0,0.0,-21.294145557066777,0.0,0.0,0.0,,,,
14.040000000000001,0.0,0.0,-21.29026647101913,0.0,0.0,0.0,70794.80262140455,,,
14.05,0.0,0.0,-21.28639356236217,0.0,0.0,0.0,,,,
14.06,0.0,0.0,-21.282526822228164,0.0,0.0,0.0,70775.29185353988,,,
14.07,0.0,0.0,-21.278666241485837,0.0,0.0,0.0,,,,
14.08,0.0,0.0,-21.274811811024293,0.0,0.0,0.0,70755.82675762034,,,
14.09,0.0,0.0,-21.27096352175289,0.0,0.0,0.0,,,,
14.1,0.0,0.0,-21.26712136460126,0.0,0.0,0.0,70736.40727703272,33.498625099987436,-99.33761247678021,2931.1146519249023
14.11,0.0,0.0,-21.26328533051921,0.0,0.0,0.0,,,,
14.120000000000001,0.0,0.0,-21.25945541047672,0.0,0.0,0.0,70717.03335534976,,,
14.13,0.0,0.0,-21.25563159546384,0.0,0.0,0.0,,,,
14.14,0.0,0.0,-21.25181387649068,0.0,0.0,0.0,70697.70493632957,,,
14.15,0.0,0.0,-21.248002244587344,0.0,0.0,0.0,,,,
14.16,0.0,0.0,-21.2441966908039,0.0,0.0,0.0,70678.42196391507,,,
14.17,0.0,0.0,-21.24039720621031,0.0,0.0,0.0,,,,
14.18,0.0,0.0,-21.236603781896395,0.0,0.0,0.0,70659.18438223345,,,
14.19,0.0,0.0,-21.232816408971786,0.0,0.0,0.0,,,,
14.200000000000001,0.0,0.0,-21.229035078565865,0.0,0.0,0.0,70639.99213559553,33.49862509998745,-99.33761247678021,2941.8689820742575
14.21,0.0,0.0,-21.22525978182773,0.0,0.0,0.0,,,,
14.22,0.0,0.0,-21.22149050992615,0.0,0.0,0.0,70620.84516849523,,,
14.23,0.0,0.0,-21.2177272540495,0.0,0.0,0.0,,,,
14.24,0.0,0.0,-21.213970005405727,0.0,0.0,0.0,70601.74342560899,,,
14.25,0.0,0.0,-21.210218755222314,0.0,0.0,0.0,,,,
14.26,0.0,0.0,-21.2064734947462,0.0,0.0,0.0,70582.68685179524,,,
14.27,0.0,0.0,-21.20273421524377,0.0,0.0,0.0,,,,
14.280000000000001,0.0,0.0,-21.19900090800078,0.0,0.0,0.0,70563.67539209379,,,
14.290000000000001,0.0,0.0,-21.195273564322306,0.0,0.0,0.0,,,,
14.3,0.0,0.0,-21.191552175532742,0.0,0.0,0.0,70544.70899172519,33.49862509998743,-99.33761247678018,2952.508824623834
14.31,0.0,0.0,-21.187836732975722,0.0,0.0,0.0,,,,
14.32,0.0,0.0,-21.184127228014052,0.0,0.0,0.0,70525.78759609039,,,
14.33,0.0,0.0,-21.180423652029717,0.0,0.0,0.0,,,,
14.34,0.0,0.0,-21.176725996423816,0.0,0.0,0.0,70506.91115077007,,,
14.35,0.0,0.0,-21.172069611640936,0.0,0.0,0.0,,,,
14.36,0.0,0.0,-21.167030278626488,0.0,0.0,0.0,70488.07960051582,,,
14.370000000000001,0.0,0.0,-21.16200396459408,0.0,0.0,0.0,,,,
14.38,0.0,0.0,-21.158059519144217,0.0,0.0,0.0,70469.29288409269,,,
14.39,0.0,0.0,-21.154401496535016,0.0,0.0,0.0,,,,
14.4,0.0,0.0,-21.1507493227314,0.0,0.0,0.0,70450.55094209425,33.49862509998745,-99.33761247678021,2963.0345581099614
14.41,0.0,0.0,-21.14710298931287,0.0,0.0,0.0,,,,
14.42,0.0,0.0,-21.14346248787279,0.0,0.0,0.0,70431.85372052382,,,
14.43,0.0,0.0,-21.139827810023093,0.0,0.0,0.0,,,,
14.44,0.0,0.0,-21.13619894739424,0.0,0.0,0.0,70413.20116594239,,,
14.450000000000001,0.0,0.0,-21.132575891635213,0.0,0.0,0.0,,,,
14.46,0.0,0.0,-21.128958634413433,0.0,0.0,0.0,70394.59322507835,,,
14.47,0.0,0.0,-21.125347167414734,0.0,0.0,0.0,,,,
14.48,0.0,0.0,-21.12174148234334,0.0,0.0,0.0,70376.02984483562,,,
14.49,0.0,0.0,-21.11814157092177,0.0,0.0,0.0,,,,
14.5,0.0,0.0,-21.11454742489085,0.0,0.0,0.0,70357.51097229314,33.49862509998745,-99.33761247678021,2973.446580157987
14.51,0.0,0.0,-21.110959036009646,0.0,0.0,0.0,,,,
14.52,0.0,0.0,-21.107376396055386,0.0,0.0,0.0,70339.03655470429,,,
14.530000000000001,0.0,0.0,-21.10379949682349,0.0,0.0,0.0,,,,
14.540000000000001,0.0,0.0,-21.10022833012746,0.0,0.0,0.0,70320.6065394964,,,
14.55,0.0,0.0,-21.096662887798903,0.0,0.0,0.0,,,,
14.56,0.0,0.0,-21.093103161687395,0.0,0.0,0.0,70302.22087427019,,,
14.57,0.0,0.0,-21.08954914366052,0.0,0.0,0.0,,,,
14.58,0.0,0.0,-21.08600082560382,0.0,0.0,0.0,70283.87950679922,,,
14.59,0.0,0.0,-21.082458199420714,0.0,0.0,0.0,,,,
14.6,0.0,0.0,-21.07892125703249,0.0,0.0,0.0,70265.58238502953,33.498625099987436,-99.33761247678021,2983.7452595057516
14.61,0.0,0.0,-21.075389990378234,0.0,0.0,0.0,,,,
14.620000000000001,0.0,0.0,-21.07186439141478,0.0,0.0,0.0,70247.32945707889,,,
14.63,0.0,0.0,-21.06834445211676,0.0,0.0,0.0,,,,
14.64,0.0,0.0,-21.064830164476437,0.0,0.0,0.0,70229.12067123648,,,
14.65,0.0,0.0,-21.061321520503707,0.0,0.0,0.0,,,,
14.66,0.0,0.0,-21.05781851222612,0.0,0.0,0.0,70210.95597596213,,,
14.67,0.0,0.0,-21.054321131688774,0.0,0.0,0.0,,,,
14.68,0.0,0.0,-21.050829370954283,0.0,0.0,0.0,70192.83531988619,,,
14.69,0.0,0.0,-21.04734322210274,0.0,0.0,0.0,,,,
14.700000000000001,0.0,0.0,-21.04386267723168,0.0,0.0,0.0,70174.75865180872,33.498625099987464,-99.33761247678018,2993.9309524206706
14.71,0.0,0.0,-21.040387728456047,0.0,0.0,0.0,,,,
14.72,0.0,0.0,-21.036918367908125,0.0,0.0,0.0,70156.72592069903,,,
14.73,0.0,0.0,-21.03308876508515,0.0,0.0,0.0,,,,
14.74,0.0,0.0,-21.029017088697806,0.0,0.0,0.0,70138.7370753242,,,
14.75,0.0,0.0,-21.024954223222117,0.0,0.0,0.0,,,,
14.76,0.0,0.0,-21.020900149240113,0.0,0.0,0.0,70120.79206188544,,,
14.77,0.0,0.0,-21.016854848394768,0.0,0.0,0.0,,,,
14.780000000000001,0.0,0.0,-21.01281830238011,0.0,0.0,0.0,70102.89082551502,,,
14.790000000000001,0.0,0.0,-21.00921058883629,0.0,0.0,0.0,,,,
14.8,0.0,0.0,-21.005795072613854,0.0,0.0,0.0,70085.03331202592,33.49862509998745,-99.33761247678021,3004.0040138996096
14.81,0.0,0.0,-21.002385055748526,0.0,0.0,0.0,,,,
14.82,0.0,0.0,-20.998980530580948,0.0,0.0,0.0,70067.21947017657,,,
14.83,0.0,0.0,-20.99558148946863,0.0,0.0,0.0,,,,
14.84,0.0,0.0,-20.992187924785824,0.0,0.0,0.0,70049.44925001658,,,
14.85,0.0,0.0,-20.988799828923604,0.0,0.0,0.0,,,,
14.86,0.0,0.0,-20.98541719428966,0.0,0.0,0.0,70031.7226017607,,,
14.870000000000001,0.0,0.0,-20.982040013308406,0.0,0.0,0.0,,,,
14.88,0.0,0.0,-20.978668278420873,0.0,0.0,0.0,70014.03947578857,,,
14.89,0.0,0.0,-20.975301982084652,0.0,0.0,0.0,,,,
14.9,0.0,0.0,-20.971941116773916,0.0,0.0,0.0,69996.39982264428,33.498625099987436,-99.3376124767802,3013.964814485118
14.91,0.0,0.0,-20.96858567497935,0.0,0.0,0.0,,,,
14.92,0.0,0.0,-20.96523564920811,0.0,0.0,0.0,69978.803593036,,,
14.93,0.0,0.0,-20.961891031983782,0.0,0.0,0.0,,,,
14.94,0.0,0.0,-20.95855181584635,0.0,0.0,0.0,69961.25073783536,,,
14.950000000000001,0.0,0.0,-20.95521799335216,0.0,0.0,0.0,,,,
14.96,0.0,0.0,-20.951889557073898,0.0,0.0,0.0,69943.74120807703,,,
14.97,0.0,0.0,-20.94856649960051,0.0,0.0,0.0,,,,
14.98,0.0,0.0,-20.945248813537212,0.0,0.0,0.0,69926.27495495822,,,
14.99,0.0,0.0,-20.941936491505416,0.0,0.0,0.0,,,,
15.0,0.0,0.0,-20.93862952614272,0.0,0.0,0.0,69908.85192983829,33.49862509998743,-99.33761247678018,3023.81369846525
15.01,0.0,0.0,-20.935327910102835,0.0,0.0,0.0,,,,
15.02,0.0,0.0,-20.932031636055612,0.0,0.0,0.0,69891.47208423806,,,
15.030000000000001,0.0,0.0,-20.92874069668693,0.0,0.0,0.0,,,,
15.040000000000001,0.0,0.0,-20.92545508469871,0.0,0.0,0.0,69874.13536983966,,,
15.05,0.0,0.0,-20.92217479280886,0.0,0.0,0.0,,,,
15.06,0.0,0.0,-20.918899813751242,0.0,0.0,0.0,69856.84173848576,,,
15.07,0.0,0.0,-20.91563014027563,0.0,0.0,0.0,,,,
15.08,0.0,0.0,-20.912365765147683,0.0,0.0,0.0,69839.59114217933,,,
15.09,0.0,0.0,-20.909106681148902,0.0,0.0,0.0,,,,
15.1,0.0,0.0,-20.905852881076594,0.0,0.0,0.0,69822.38353308303,33.49862509998745,-99.3376124767802,3033.55099895469
15.11,0.0,0.0,-20.902604357743847,0.0,0.0,0.0,,,,
15.120000000000001,0.0,0.0,-20.899361103979473,0.0,0.0,0.0,69805.21886351884,,,
15.13,0.0,0.0,-20.896123112627986,0.0,0.0,0.0,,,,
15.14,0.0,0.0,-20.89279613922195,0.0,0.0,0.0,69788.0970859646,,,
15.15,0.0,0.0,-20.888466218685856,0.0,0.0,0.0,,,,
15.16,0.0,0.0,-20.88414754742958,0.0,0.0,0.0,69771.0181515951,,,
15.17,0.0,0.0,-20.879952454017477,0.0,0.0,0.0,,,,
15.18,0.0,0.0,-20.87674945578812,0.0,0.0,0.0,69753.98200676516,,,
15.19,0.0,0.0,-20.873551656895422,0.0,0.0,0.0,,,,
15.200000000000001,0.0,0.0,-20.87035905329246,0.0,0.0,0.0,69736.9886008886,33.49862509998743,-99.33761247678021,3043.177047303467
15.21,0.0,0.0,-20.867171637936934,0.0,0.0,0.0,,,,
15.22,0.0,0.0,-20.86398940384647,0.0,0.0,0.0,69720.03788702903,,,
15.23,0.0,0.0,-20.860812344053926,0.0,0.0,0.0,,,,
15.24,0.0,0.0,-20.857640451607402,0.0,0.0,0.0,69703.1298185231,,,
15.25,0.0,0.0,-20.854473719570187,0.0,0.0,0.0,,,,
15.26,0.0,0.0,-20.851312141020728,0.0,0.0,0.0,69686.26434886333,,,
15.27,0.0,0.0,-20.848155709052577,0.0,0.0,0.0,,,,
15.280000000000001,0.0,0.0,-20.845004416774383,0.0,0.0,0.0,69669.44143169752,,,
15.290000000000001,0.0,0.0,-20.841858257309866,0.0,0.0,0.0,,,,
15.3,0.0,0.0,-20.838717223797758,0.0,0.0,0.0,69652.66102082832,33.49862509998745,-99.3376124767802,3052.6921899381305
15.31,0.0,0.0,-20.835581309391774,0.0,0.0,0.0,,,,
15.32,0.0,0.0,-20.83245050726059,0.0,0.0,0.0,69635.92307021297,,,
15.33,0.0,0.0,-20.82932481058781,0.0,0.0,0.0,,,,
15.34,0.0,0.0,-20.826204212571895,0.0,0.0,0.0,69619.22753396271,,,
15.35,0.0,0.0,-20.82308870642618,0.0,0.0,0.0,,,,
15.36,0.0,0.0,-20.819978285378824,0.0,0.0,0.0,69602.57436634225,,,
15.370000000000001,0.0,0.0,-20.816872942672774,0.0,0.0,0.0,,,,
15.38,0.0,0.0,-20.8137726715657,0.0,0.0,0.0,69585.96352176958,,,
15.39,0.0,0.0,-20.810677465330038,0.0,0.0,0.0,,,,
15.4,0.0,0.0,-20.807587317252885,0.0,0.0,0.0,69569.3949548153,33.498625099987436,-99.3376124767802,3062.096748224462
15.41,0.0,0.0,-20.80450222063598,0.0,0.0,0.0,,,,
15.42,0.0,0.0,-20.801422168795714,0.0,0.0,0.0,69552.86862020232,,,
15.43,0.0,0.0,-20.798347155063063,0.0,0.0,0.0,,,,
15.44,0.0,0.0,-20.795277172783557,0.0,0.0,0.0,69536.3844728055,,,
15.450000000000001,0.0,0.0,-20.792212215317228,0.0,0.0,0.0,,,,
15.46,0.0,0.0,-20.78915227603863,0.0,0.0,0.0,69519.94246765098,,,
15.47,0.0,0.0,-20.786097348336767,0.0,0.0,0.0,,,,
15.48,0.0,0.0,-20.783047425615074,0.0,0.0,0.0,69503.54255991604,,,
15.49,0.0,0.0,-20.780002501291378,0.0,0.0,0.0,,,,
15.5,0.0,0.0,-20.77696256879787,0.0,0.0,0.0,69487.18470492851,33.49862509998746,-99.33761247678021,3071.391033472342
15.51,0.0,0.0,-20.773927621581073,0.0,0.0,0.0,,,,
15.52,0.0,0.0,-20.770897653101823,0.0,0.0,0.0,69470.86885816639,,,
15.530000000000001,0.0,0.0,-20.767872656835205,0.0,0.0,0.0,,,,
15.540000000000001,0.0,0.0,-20.764852626270553,0.0,0.0,0.0,69454.59497525742,,,
15.55,0.0,0.0,-20.761837554911402,0.0,0.0,0.0,,,,
15.56,0.0,0.0,-20.758827436275467,0.0,0.0,0.0,69438.36301197867,,,
15.57,0.0,0.0,-20.755822263894597,0.0,0.0,0.0,,,,
15.58,0.0,0.0,-20.752822031314764,0.0,0.0,0.0,69422.17292425611,,,
15.59,0.0,0.0,-20.74972768307328,0.0,0.0,0.0,,,,
15.6,0.0,0.0,-20.74576130988308,0.0,0.0,0.0,69406.0246679693,33.49862509998744,-99.3376124767802,3080.57535195421
15.610000000000001,0.0,0.0,-20.74180530458637,0.0,0.0,0.0,,,,
15.620000000000001,0.0,0.0,-20.737941214690725,0.0,0.0,0.0,69389.91819563962,,,
15.63,0.0,0.0,-20.734973668120134,0.0,0.0,0.0,,,,
15.64,0.0,0.0,-20.732011005349662,0.0,0.0,0.0,69373.85345820678,,,
15.65,0.0,0.0,-20.729053221447003,0.0,0.0,0.0,,,,
15.66,0.0,0.0,-20.726100310102872,0.0,0.0,0.0,69357.83041122653,,,
15.67,0.0,0.0,-20.72315226501864,0.0,0.0,0.0,,,,
15.68,0.0,0.0,-20.720209079909395,0.0,0.0,0.0,69341.84901143337,,,
15.69,0.0,0.0,-20.7172707485039,0.0,0.0,0.0,,,,
15.700000000000001,0.0,0.0,-20.71433726454458,0.0,0.0,0.0,69325.90921570043,33.498625099987436,-99.33761247678018,3089.650018403445
15.71,0.0,0.0,-20.711408621787513,0.0,0.0,0.0,,,,
15.72,0.0,0.0,-20.708484814002393,0.0,0.0,0.0,69310.01098104657,,,
15.73,0.0,0.0,-20.70556583497249,0.0,0.0,0.0,,,,
15.74,0.0,0.0,-20.70265167849461,0.0,0.0,0.0,69294.15426463616,,,
15.75,0.0,0.0,-20.69974233837906,0.0,0.0,0.0,,,,
15.76,0.0,0.0,-20.696837808449686,0.0,0.0,0.0,69278.33902377836,,,
15.77,0.0,0.0,-20.693938082543756,0.0,0.0,0.0,,,,
15.780000000000001,0.0,0.0,-20.691043154511952,0.0,0.0,0.0,69262.565215927,,,
15.790000000000001,0.0,0.0,-20.688153018218408,0.0,0.0,0.0,,,,
15.8,0.0,0.0,-20.685267667540597,0.0,0.0,0.0,69246.83279868001,33.49862509998744,-99.3376124767802,3098.6153442139107
15.81,0.0,0.0,-20.682387096369347,0.0,0.0,0.0,,,,
15.82,0.0,0.0,-20.67951129860879,0.0,0.0,0.0,69231.14172977925,,,
15.83,0.0,0.0,-20.676640268176364,0.0,0.0,0.0,,,,
15.84,0.0,0.0,-20.673773999002737,0.0,0.0,0.0,69215.4919671099,,,
15.85,0.0,0.0,-20.67091248503182,0.0,0.0,0.0,,,,
15.860000000000001,0.0,0.0,-20.66805572022072,0.0,0.0,0.0,69199.88346870017,,,
15.870000000000001,0.0,0.0,-20.665203698539713,0.0,0.0,0.0,,,,
15.88,0.0,0.0,-20.662356413972226,0.0,0.0,0.0,69184.31619272087,,,
15.89,0.0,0.0,-20.659513860514785,0.0,0.0,0.0,,,,
15.9,0.0,0.0,-20.65667603217701,0.0,0.0,0.0,69168.79009748512,33.49862509998746,-99.33761247678018,3107.4716202067393
15.91,0.0,0.0,-20.653842922981585,0.0,0.0,0.0,,,,
15.92,0.0,0.0,-20.651014526964204,0.0,0.0,0.0,69153.30514144783,,,
15.93,0.0,0.0,-20.648190838173576,0.0,0.0,0.0,,,,
15.94,0.0,0.0,-20.64537185067139,0.0,0.0,0.0,69137.86128320539,,,
15.950000000000001,0.0,0.0,-20.64255755853226,0.0,0.0,0.0,,,,
15.96,0.0,0.0,-20.63974795584373,0.0,0.0,0.0,69122.45848149534,,,
15.97,0.0,0.0,-20.636943036706235,0.0,0.0,0.0,,,,
15.98,0.0,0.0,-20.634142795233068,0.0,0.0,0.0,69107.09669519591,,,
15.99,0.0,0.0,-20.631347225550353,0.0,0.0,0.0,,,,
16.0,0.0,0.0,-20.628556321797035,0.0,0.0,0.0,69091.77588332571,33.498625099987436,-99.33761247678022,3116.2191322984945
16.01,0.0,0.0,-20.625770078124816,0.0,0.0,0.0,,,,
16.02,0.0,0.0,-20.62270195001502,0.0,0.0,0.0,69076.49600501562,,,
16.03,0.0,0.0,-20.619492724531217,0.0,0.0,0.0,,,,
16.04,0.0,0.0,-20.61629060499967,0.0,0.0,0.0,69061.2570184277,,,
16.05,0.0,0.0,-20.613095577664318,0.0,0.0,0.0,,,,
16.06,0.0,0.0,-20.609907628813865,0.0,0.0,0.0,69046.05888013754,,,
16.07,0.0,0.0,-20.606726744772594,0.0,0.0,0.0,,,,
16.080000000000002,0.0,0.0,-20.60379279550535,0.0,0.0,0.0,69030.90154672597,,,
16.09,0.0,0.0,-20.60105103695568,0.0,0.0,0.0,,,,
16.1,0.0,0.0,-20.598313871507695,0.0,0.0,0.0,69015.78497596488,33.49862509998745,-99.3376124767802,3124.858166227085
16.11,0.0,0.0,-20.595581293466523,0.0,0.0,0.0,,,,
16.12,0.0,0.0,-20.59285329714921,0.0,0.0,0.0,69000.70912757445,,,
16.13,0.0,0.0,-20.5901298768852,0.0,0.0,0.0,,,,
16.14,0.0,0.0,-20.587411027016284,0.0,0.0,0.0,68985.67396160295,,,
16.15,0.0,0.0,-20.5846967418966,0.0,0.0,0.0,,,,
16.16,0.0,0.0,-20.581987015892597,0.0,0.0,0.0,68970.6794382348,,,
16.17,0.0,0.0,-20.57928184338301,0.0,0.0,0.0,,,,
16.18,0.0,0.0,-20.576581218758804,0.0,0.0,0.0,68955.72551779119,,,
16.19,0.0,0.0,-20.573885136423215,0.0,0.0,0.0,,,,
16.2,0.0,0.0,-20.57119359079166,0.0,0.0,0.0,68940.81216072966,33.49862509998745,-99.3376124767802,3133.389016936893
16.21,0.0,0.0,-20.568506576291714,0.0,0.0,0.0,,,,
16.22,0.0,0.0,-20.565824087363158,0.0,0.0,0.0,68925.9393276437,,,
16.23,0.0,0.0,-20.563146118457873,0.0,0.0,0.0,,,,
16.240000000000002,0.0,0.0,-20.560472664039843,0.0,0.0,0.0,68911.10697926265,,,
16.25,0.0,0.0,-20.557803718585145,0.0,0.0,0.0,,,,
16.26,0.0,0.0,-20.55513927658189,0.0,0.0,0.0,68896.31507645118,,,
16.27,0.0,0.0,-20.552479332530226,0.0,0.0,0.0,,,,
16.28,0.0,0.0,-20.549823880942284,0.0,0.0,0.0,68881.56358020888,,,
16.29,0.0,0.0,-20.547172916342205,0.0,0.0,0.0,,,,
16.3,0.0,0.0,-20.544526433266057,0.0,0.0,0.0,68866.85245166998,33.498625099987436,-99.33761247678021,3141.8119585888257
16.31,0.0,0.0,-20.54188442626185,0.0,0.0,0.0,,,,
16.32,0.0,0.0,-20.539246889889476,0.0,0.0,0.0,68852.18165210306,,,
16.330000000000002,0.0,0.0,-20.536613818720717,0.0,0.0,0.0,,,,
16.34,0.0,0.0,-20.53398520733921,0.0,0.0,0.0,68837.55114291057,,,
16.35,0.0,0.0,-20.531361050340408,0.0,0.0,0.0,,,,
16.36,0.0,0.0,-20.52874134233158,0.0,0.0,0.0,68822.96088562858,,,
16.37,0.0,0.0,-20.52612607793175,0.0,0.0,0.0,,,,
16.38,0.0,0.0,-20.523515251771727,0.0,0.0,0.0,68808.41084192641,,,
16.39,0.0,0.0,-20.520908858494025,0.0,0.0,0.0,,,,
16.4,0.0,0.0,-20.518306892752875,0.0,0.0,0.0,68793.9009736063,33.49862509998744,-99.3376124767802,3150.1272578556386
16.41,0.0,0.0,-20.515709349214177,0.0,0.0,0.0,,,,
16.42,0.0,0.0,-20.51311622255549,0.0,0.0,0.0,68779.43124260304,,,
16.43,0.0,0.0,-20.510527507466016,0.0,0.0,0.0,,,,
16.44,0.0,0.0,-20.50794319864655,0.0,0.0,0.0,68765.00161098364,,,
16.45,0.0,0.0,-20.505363290809484,0.0,0.0,0.0,,,,
16.46,0.0,0.0,-20.50278777867875,0.0,0.0,0.0,68750.61204094699,,,
16.47,0.0,0.0,-20.500216656989835,0.0,0.0,0.0,,,,
16.48,0.0,0.0,-20.497649920489735,0.0,0.0,0.0,68736.26249482352,,,
16.490000000000002,0.0,0.0,-20.495087563936934,0.0,0.0,0.0,,,,
16.5,0.0,0.0,-20.49252958210137,0.0,0.0,0.0,68721.95293507498,33.498625099987436,-99.33761247678022,3158.335176936291
16.51,0.0,0.0,-20.489975969764412,0.0,0.0,0.0,,,,
16.52,0.0,0.0,-20.487426721718883,0.0,0.0,0.0,68707.6833242938,,,
16.53,0.0,0.0,-20.484881832768963,0.0,0.0,0.0,,,,
16.54,0.0,0.0,-20.48192188467491,0.0,0.0,0.0,68693.45362517431,,,
16.55,0.0,0.0,-20.478641168673274,0.0,0.0,0.0,,,,
16.56,0.0,0.0,-20.475369230685562,0.0,0.0,0.0,68679.26379879905,,,
16.57,0.0,0.0,-20.472460044331594,0.0,0.0,0.0,,,,
16.580000000000002,0.0,0.0,-20.469943631020286,0.0,0.0,0.0,68665.113803635,,,
16.59,0.0,0.0,-20.46743153214149,0.0,0.0,0.0,,,,
16.6,0.0,0.0,-20.464923742602032,0.0,0.0,0.0,68651.00360114823,33.49862509998745,-99.33761247678021,3166.4359765965496
16.61,0.0,0.0,-20.46242025731986,0.0,0.0,0.0,,,,
16.62,0.0,0.0,-20.45992107122408,0.0,0.0,0.0,68636.93315461633,,,
16.63,0.0,0.0,-20.457426179254874,0.0,0.0,0.0,,,,
16.64,0.0,0.0,-20.454935576363525,0.0,0.0,0.0,68622.90242746117,,,
16.65,0.0,0.0,-20.452449257512356,0.0,0.0,0.0,,,,
16.66,0.0,0.0,-20.44996721767474,0.0,0.0,0.0,68608.91138323287,,,
16.67,0.0,0.0,-20.44748945183504,0.0,0.0,0.0,,,,
16.68,0.0,0.0,-20.445015954988623,0.0,0.0,0.0,68594.95998560959,,,
16.69,0.0,0.0,-20.442546722141824,0.0,0.0,0.0,,,,
16.7,0.0,0.0,-20.44008174831192,0.0,0.0,0.0,68581.04819839715,33.49862509998744,-99.3376124767802,3174.4299269616167
16.71,0.0,0.0,-20.437621028527104,0.0,0.0,0.0,,,,
16.72,0.0,0.0,-20.435164557826482,0.0,0.0,0.0,68567.17598552881,,,
16.73,0.0,0.0,-20.432712331260028,0.0,0.0,0.0,,,,
16.740000000000002,0.0,0.0,-20.430264343888577,0.0,0.0,0.0,68553.34331106483,,,
16.75,0.0,0.0,-20.427820590783796,0.0,0.0,0.0,,,,
16.76,0.0,0.0,-20.42538106702817,0.0,0.0,0.0,68539.55013919229,,,
16.77,0.0,0.0,-20.422945767714968,0.0,0.0,0.0,,,,
16.78,0.0,0.0,-20.420514687948227,0.0,0.0,0.0,68525.79643422461,,,
16.79,0.0,0.0,-20.418087822842743,0.0,0.0,0.0,,,,
16.8,0.0,0.0,-20.415665167524025,0.0,0.0,0.0,68512.08216060145,33.49862509998744,-99.3376124767802,3182.317279404219
16.81,0.0,0.0,-20.413246717128295,0.0,0.0,0.0,,,,
16.82,0.0,0.0,-20.410832466802447,0.0,0.0,0.0,68498.40728288818,,,
16.830000000000002,0.0,0.0,-20.408422411704045,0.0,0.0,0.0,,,,
16.84,0.0,0.0,-20.406016547001286,0.0,0.0,0.0,68484.77176577573,,,
16.85,0.0,0.0,-20.403614867872996,0.0,0.0,0.0,,,,
16.86,0.0,0.0,-20.401217369508586,0.0,0.0,0.0,68471.17557408019,,,
16.87,0.0,0.0,-20.39882404710805,0.0,0.0,0.0,,,,
16.88,0.0,0.0,-20.39643489588193,0.0,0.0,0.0,68457.61867274258,,,
16.89,0.0,0.0,-20.39404991105132,0.0,0.0,0.0,,,,
16.9,0.0,0.0,-20.391669087847795,0.0,0.0,0.0,68444.10102682847,33.498625099987436,-99.3376124767802,3190.0982781001167
16.91,0.0,0.0,-20.389292421513446,0.0,0.0,0.0,,,,
16.92,0.0,0.0,-20.386919907300822,0.0,0.0,0.0,68430.62260152769,,,
16.93,0.0,0.0,-20.384551540472934,0.0,0.0,0.0,,,,
16.94,0.0,0.0,-20.38218731630321,0.0,0.0,0.0,68417.18336215407,,,
16.95,0.0,0.0,-20.3798272300755,0.0,0.0,0.0,,,,
16.96,0.0,0.0,-20.37747127708402,0.0,0.0,0.0,68403.78327414513,,,
16.97,0.0,0.0,-20.37511945263337,0.0,0.0,0.0,,,,
16.98,0.0,0.0,-20.3727717520385,0.0,0.0,0.0,68390.42230306176,,,
16.990000000000002,0.0,0.0,-20.370428170624656,0.0,0.0,0.0,,,,
17.0,0.0,0.0,-20.368088703727423,0.0,0.0,0.0,68377.10041458784,33.498625099987436,-99.3376124767802,3197.7731630109365
17.01,0.0,0.0,-20.36575334669265,0.0,0.0,0.0,,,,
17.02,0.0,0.0,-20.36342209487647,0.0,0.0,0.0,68363.81757453011,,,
17.03,0.0,0.0,-20.361094943645234,0.0,0.0,0.0,,,,
17.04,0.0,0.0,-20.35877188837554,0.0,0.0,0.0,68350.5737488178,,,
17.05,0.0,0.0,-20.35645292445418,0.0,0.0,0.0,,,,
17.06,0.0,0.0,-20.354138047278127,0.0,0.0,0.0,68337.36890350227,,,
17.07,0.0,0.0,-20.351547160731418,0.0,0.0,0.0,,,,
17.080000000000002,0.0,0.0,-20.34892331156396,0.0,0.0,0.0,68324.20300444901,,,
17.09,0.0,0.0,-20.34630550237505,0.0,0.0,0.0,,,,
17.1,0.0,0.0,-20.343693722181662,0.0,0.0,0.0,68311.07601617997,33.49862509998743,-99.3376124767802,3205.3421702562946
17.11,0.0,0.0,-20.34108796002777,0.0,0.0,0.0,,,,
17.12,0.0,0.0,-20.338488204984262,0.0,0.0,0.0,68297.98790292106,,,
17.13,0.0,0.0,-20.336095916625027,0.0,0.0,0.0,,,,
17.14,0.0,0.0,-20.33381963261948,0.0,0.0,0.0,68284.93862925001,,,
17.150000000000002,0.0,0.0,-20.331547381857227,0.0,0.0,0.0,,,,
17.16,0.0,0.0,-20.329279159856412,0.0,0.0,0.0,68271.9281612765,,,
17.17,0.0,0.0,-20.32701496214507,0.0,0.0,0.0,,,,
17.18,0.0,0.0,-20.32475478426115,0.0,0.0,0.0,68258.95646582275,,,
17.19,0.0,0.0,-20.322498621752466,0.0,0.0,0.0,,,,
17.2,0.0,0.0,-20.320246470176688,0.0,0.0,0.0,68246.02350983236,33.49862509998745,-99.3376124767802,3212.8055422440507
17.21,0.0,0.0,-20.31799832510133,0.0,0.0,0.0,,,,
17.22,0.0,0.0,-20.315754182103703,0.0,0.0,0.0,68233.12926036854,,,
17.23,0.0,0.0,-20.31351403677093,0.0,0.0,0.0,,,,
17.240000000000002,0.0,0.0,-20.311277884699926,0.0,0.0,0.0,68220.27368461383,,,
17.25,0.0,0.0,-20.309045721497352,0.0,0.0,0.0,,,,
17.26,0.0,0.0,-20.306817542779605,0.0,0.0,0.0,68207.45674986998,,,
17.27,0.0,0.0,-20.304593344172822,0.0,0.0,0.0,,,,
17.28,0.0,0.0,-20.30237312131283,0.0,0.0,0.0,68194.67842355746,,,
17.29,0.0,0.0,-20.30015686984514,0.0,0.0,0.0,,,,
17.3,0.0,0.0,-20.297944585424936,0.0,0.0,0.0,68181.93867321535,33.49862509998745,-99.33761247678021,3220.1635146175604
17.31,0.0,0.0,-20.295736263717053,0.0,0.0,0.0,,,,
17.32,0.0,0.0,-20.293531900395948,0.0,0.0,0.0,68169.23746650093,,,
17.330000000000002,0.0,0.0,-20.291331491145684,0.0,0.0,0.0,,,,
17.34,0.0,0.0,-20.28913503165993,0.0,0.0,0.0,68156.57477118948,,,
17.35,0.0,0.0,-20.28694251764192,0.0,0.0,0.0,,,,
17.36,0.0,0.0,-20.28475394480444,0.0,0.0,0.0,68143.950555174,,,
17.37,0.0,0.0,-20.282569308869824,0.0,0.0,0.0,,,,
17.38,0.0,0.0,-20.28038860556991,0.0,0.0,0.0,68131.36478646492,,,
17.39,0.0,0.0,-20.278211830646054,0.0,0.0,0.0,,,,
17.400000000000002,0.0,0.0,-20.276038979849076,0.0,0.0,0.0,68118.81743318982,33.49862509998745,-99.33761247678021,3227.4163104683525
17.41,0.0,0.0,-20.27387004893928,0.0,0.0,0.0,,,,
17.42,0.0,0.0,-20.271705033686388,0.0,0.0,0.0,68106.30846359317,,,
17.43,0.0,0.0,-20.269543929869585,0.0,0.0,0.0,,,,
17.44,0.0,0.0,-20.26738673327744,0.0,0.0,0.0,68093.83784603611,,,
17.45,0.0,0.0,-20.265233439707927,0.0,0.0,0.0,,,,
17.46,0.0,0.0,-20.26308404496838,0.0,0.0,0.0,68081.40554899609,,,
17.47,0.0,0.0,-20.26093854487552,0.0,0.0,0.0,,,,
17.48,0.0,0.0,-20.25879693525551,0.0,0.0,0.0,68069.01154107097,,,
17.490000000000002,0.0,0.0,-20.25665921194389,0.0,0.0,0.0,,,,
17.5,0.0,0.0,-20.2545253707855,0.0,0.0,0.0,68056.6557910462,33.49862509998745,-99.33761247678021,3234.5641488551955
17.51,0.0,0.0,-20.25239540763444,0.0,0.0,0.0,,,,
17.52,0.0,0.0,-20.250269318354107,0.0,0.0,0.0,68044.33826788008,,,
17.53,0.0,0.0,-20.24814709881712,0.0,0.0,0.0,,,,
17.54,0.0,0.0,-20.246028744905345,0.0,0.0,0.0,68032.05894064561,,,
17.55,0.0,0.0,-20.243914252509846,0.0,0.0,0.0,,,,
17.56,0.0,0.0,-20.24180361753089,0.0,0.0,0.0,68019.81777852838,,,
17.57,0.0,0.0,-20.23969683587793,0.0,0.0,0.0,,,,
17.580000000000002,0.0,0.0,-20.237593903469545,0.0,0.0,0.0,68007.61475082644,,,
17.59,0.0,0.0,-20.235494816233505,0.0,0.0,0.0,,,,
17.6,0.0,0.0,-20.233399570106666,0.0,0.0,0.0,67995.44982694999,33.49862509998745,-99.33761247678021,3241.607244918063
17.61,0.0,0.0,-20.231308161035017,0.0,0.0,0.0,,,,
17.62,0.0,0.0,-20.229220584973632,0.0,0.0,0.0,67983.32297642114,,,
17.63,0.0,0.0,-20.227136837886654,0.0,0.0,0.0,,,,
17.64,0.0,0.0,-20.225056915747288,0.0,0.0,0.0,67971.2341688737,,,
17.650000000000002,0.0,0.0,-20.222980814537774,0.0,0.0,0.0,,,,
17.66,0.0,0.0,-20.220815140888238,0.0,0.0,0.0,67959.18337405018,,,
17.67,0.0,0.0,-20.21848317916899,0.0,0.0,0.0,,,,
17.68,0.0,0.0,-20.21615675704203,0.0,0.0,0.0,67947.17056131248,,,
17.69,0.0,0.0,-20.21383586483691,0.0,0.0,0.0,,,,
17.7,0.0,0.0,-20.2115204928474,0.0,0.0,0.0,67935.19569897933,33.498625099987436,-99.3376124767802,3248.5458102841385
17.71,0.0,0.0,-20.2092106313904,0.0,0.0,0.0,,,,
17.72,0.0,0.0,-20.20691911644589,0.0,0.0,0.0,67923.25875533029,,,
17.73,0.0,0.0,-20.204878832778753,0.0,0.0,0.0,,,,
17.740000000000002,0.0,0.0,-20.202842322727633,0.0,0.0,0.0,67911.35969910219,,,
17.75,0.0,0.0,-20.200809582502572,0.0,0.0,0.0,,,,
17.76,0.0,0.0,-20.198780608201684,0.0,0.0,0.0,67899.4985003543,,,
17.77,0.0,0.0,-20.1967553959319,0.0,0.0,0.0,,,,
17.78,0.0,0.0,-20.19473394180891,0.0,0.0,0.0,67887.67512953522,,,
17.79,0.0,0.0,-20.19271624195717,0.0,0.0,0.0,,,,
17.8,0.0,0.0,-20.190702292509897,0.0,0.0,0.0,67875.88955720309,33.498625099987436,-99.3376124767802,3255.380061815871
17.81,0.0,0.0,-20.188692089609038,0.0,0.0,0.0,,,,
17.82,0.0,0.0,-20.186685629405243,0.0,0.0,0.0,67864.14175402564,,,
17.830000000000002,0.0,0.0,-20.184682908057873,0.0,0.0,0.0,,,,
17.84,0.0,0.0,-20.182683921734974,0.0,0.0,0.0,67852.43169077969,,,
17.85,0.0,0.0,-20.18068866661325,0.0,0.0,0.0,,,,
17.86,0.0,0.0,-20.178697138878064,0.0,0.0,0.0,67840.75933835098,,,
17.87,0.0,0.0,-20.176709334723412,0.0,0.0,0.0,,,,
17.88,0.0,0.0,-20.174725250351916,0.0,0.0,0.0,67829.12466773401,,,
17.89,0.0,0.0,-20.172744881974797,0.0,0.0,0.0,,,,
17.900000000000002,0.0,0.0,-20.17076822581187,0.0,0.0,0.0,67817.52765003177,33.49862509998744,-99.3376124767802,3262.110209233608
17.91,0.0,0.0,-20.168795278091512,0.0,0.0,0.0,,,,
17.92,0.0,0.0,-20.166826035050672,0.0,0.0,0.0,67805.96825645544,,,
17.93,0.0,0.0,-20.164860492934835,0.0,0.0,0.0,,,,
17.94,0.0,0.0,-20.162898647998013,0.0,0.0,0.0,67794.44645832432,,,
17.95,0.0,0.0,-20.160940496502732,0.0,0.0,0.0,,,,
17.96,0.0,0.0,-20.158986034720012,0.0,0.0,0.0,67782.96222706554,,,
17.97,0.0,0.0,-20.157035258929355,0.0,0.0,0.0,,,,
17.98,0.0,0.0,-20.155088165418725,0.0,0.0,0.0,67771.5155342138,,,
17.990000000000002,0.0,0.0,-20.153144750484532,0.0,0.0,0.0,,,,
18.0,0.0,0.0,-20.151205010431642,0.0,0.0,0.0,67760.10635141125,33.49862509998745,-99.3376124767802,3268.736451914637
18.01,0.0,0.0,-20.149268941573315,0.0,0.0,0.0,,,,
18.02,0.0,0.0,-20.14733654023123,0.0,0.0,0.0,67748.73465040712,,,
18.03,0.0,0.0,-20.14540780273545,0.0,0.0,0.0,,,,
18.04,0.0,0.0,-20.143482725424413,0.0,0.0,0.0,67737.40040305765,,,
18.05,0.0,0.0,-20.141561304644924,0.0,0.0,0.0,,,,
18.06,0.0,0.0,-20.139643536752118,0.0,0.0,0.0,67726.10358132583,,,
18.07,0.0,0.0,-20.13772941810947,0.0,0.0,0.0,,,,
18.080000000000002,0.0,0.0,-20.135818945088765,0.0,0.0,0.0,67714.84415728114,,,
18.09,0.0,0.0,-20.133912114070085,0.0,0.0,0.0,,,,
18.1,0.0,0.0,-20.132008921441816,0.0,0.0,0.0,67703.62210309938,33.49862509998745,-99.3376124767802,3275.258985493055
18.11,0.0,0.0,-20.130109363600585,0.0,0.0,0.0,,,,
18.12,0.0,0.0,-20.12821343695129,0.0,0.0,0.0,67692.43739106241,,,
18.13,0.0,0.0,-20.12632113790707,0.0,0.0,0.0,,,,
18.14,0.0,0.0,-20.124432462889292,0.0,0.0,0.0,67681.28999355805,,,
18.150000000000002,0.0,0.0,-20.12254740832752,0.0,0.0,0.0,,,,
18.16,0.0,0.0,-20.120665970659537,0.0,0.0,0.0,67670.17988307972,,,
18.17,0.0,0.0,-20.118788146331283,0.0,0.0,0.0,,,,
18.18,0.0,0.0,-20.116913931796887,0.0,0.0,0.0,67659.10703222634,,,
18.19,0.0,0.0,-20.115043323518623,0.0,0.0,0.0,,,,
18.2,0.0,0.0,-20.113176317966904,0.0,0.0,0.0,67648.07141370207,33.49862509998745,-99.33761247678022,3281.67800193249
18.21,0.0,0.0,-20.111312911620267,0.0,0.0,0.0,,,,
18.22,0.0,0.0,-20.109453100965357,0.0,0.0,0.0,67637.0730003161,,,
18.23,0.0,0.0,-20.107596882496924,0.0,0.0,0.0,,,,
18.240000000000002,0.0,0.0,-20.105744252717788,0.0,0.0,0.0,67626.1117649825,,,
18.25,0.0,0.0,-20.103895208138844,0.0,0.0,0.0,,,,
18.26,0.0,0.0,-20.10204974527904,0.0,0.0,0.0,67615.18768071993,,,
18.27,0.0,0.0,-20.10020786066536,0.0,0.0,0.0,,,,
18.28,0.0,0.0,-20.098369550832818,0.0,0.0,0.0,67604.30072065155,,,
18.29,0.0,0.0,-20.096534812324432,0.0,0.0,0.0,,,,
18.3,0.0,0.0,-20.09470364169122,0.0,0.0,0.0,67593.45085800458,33.49862509998744,-99.3376124767802,3287.993689559729
18.31,0.0,0.0,-20.09287603549219,0.0,0.0,0.0,,,,
18.32,0.0,0.0,-20.091051990294304,0.0,0.0,0.0,67582.63806611043,,,
18.330000000000002,0.0,0.0,-20.088880721625518,0.0,0.0,0.0,,,,
18.34,0.0,0.0,-20.086644737131444,0.0,0.0,0.0,67571.86231802733,,,
18.35,0.0,0.0,-20.08441528993246,0.0,0.0,0.0,,,,
18.36,0.0,0.0,-20.082461943751163,0.0,0.0,0.0,67561.12358502939,,,
18.37,0.0,0.0,-20.080660378387602,0.0,0.0,0.0,,,,
18.38,0.0,0.0,-20.07886234317281,0.0,0.0,0.0,67550.42183895656,,,
18.39,0.0,0.0,-20.07706783474405,0.0,0.0,0.0,,,,
18.400000000000002,0.0,0.0,-20.07527684974643,0.0,0.0,0.0,67539.75705343815,33.49862509998746,-99.3376124767802,3294.206235756933
18.41,0.0,0.0,-20.073489384832836,0.0,0.0,0.0,,,,
18.42,0.0,0.0,-20.07170543666397,0.0,0.0,0.0,67529.12920235677,,,
18.43,0.0,0.0,-20.0699250019083,0.0,0.0,0.0,,,,
18.44,0.0,0.0,-20.068148077242064,0.0,0.0,0.0,67518.53825969771,,,
18.45,0.0,0.0,-20.066374659349258,0.0,0.0,0.0,,,,
18.46,0.0,0.0,-20.064604744921603,0.0,0.0,0.0,67507.98419954872,,,
18.47,0.0,0.0,-20.062838330658572,0.0,0.0,0.0,,,,
18.48,0.0,0.0,-20.061075413267325,0.0,0.0,0.0,67497.46699609979,,,
18.490000000000002,0.0,0.0,-20.059315989462736,0.0,0.0,0.0,,,,
18.5,0.0,0.0,-20.05756005596736,0.0,0.0,0.0,67486.98662364294,33.49862509998745,-99.3376124767802,3300.3158311359157
18.51,0.0,0.0,-20.05580760951143,0.0,0.0,0.0,,,,
18.52,0.0,0.0,-20.054058646832836,0.0,0.0,0.0,67476.54305657212,,,
18.53,0.0,0.0,-20.05231316467712,0.0,0.0,0.0,,,,
18.54,0.0,0.0,-20.050571159797453,0.0,0.0,0.0,67466.13626938291,,,
18.55,0.0,0.0,-20.04883262895463,0.0,0.0,0.0,,,,
18.56,0.0,0.0,-20.04709756891706,0.0,0.0,0.0,67455.76623667243,,,
18.57,0.0,0.0,-20.045365976460737,0.0,0.0,0.0,,,,
18.580000000000002,0.0,0.0,-20.04363784836924,0.0,0.0,0.0,67445.432933139,,,
18.59,0.0,0.0,-20.041913181433728,0.0,0.0,0.0,,,,
18.6,0.0,0.0,-20.040191972452924,0.0,0.0,0.0,67435.13633358221,33.49862509998744,-99.3376124767802,3306.3226538804756
18.61,0.0,0.0,-20.038474218233063,0.0,0.0,0.0,,,,
18.62,0.0,0.0,-20.03675991558793,0.0,0.0,0.0,67424.87641290238,,,
18.63,0.0,0.0,-20.03504906133883,0.0,0.0,0.0,,,,
18.64,0.0,0.0,-20.03334165231459,0.0,0.0,0.0,67414.65314610061,,,
18.650000000000002,0.0,0.0,-20.031637685351505,0.0,0.0,0.0,,,,
18.66,0.0,0.0,-20.029937157293368,0.0,0.0,0.0,67404.46650827861,,,
18.67,0.0,0.0,-20.02824006499143,0.0,0.0,0.0,,,,
