time_s,accelerometer_x,accelerometer_y,accelerometer_z,gyroscope_x,gyroscope_y,gyroscope_z,barometer_v1,gnss_x,gnss_y,gnss_z
0.0,-0.001694938262599075,0.0009357851777869413,-9.78045830670475,0.0006712199663764446,-0.0010591714274106317,0.0029282981477999443,96454.14803513487,33.49861720212538,-99.33759475826066,416.96145377101243
0.0033333333333333335,0.004256138031048309,-0.004276950430523071,7.576473857599222,-0.0012600025592049572,0.0013257686658090264,-0.003619195339731817,,,,
0.006666666666666667,0.003952493696659424,0.0040398573176802875,12.079663736541749,-0.001294632638439149,0.0025375489975170374,0.002020059730186445,,,,
0.01,0.003533228915392939,0.008579593099431777,16.56370847033987,-0.002479945832907917,0.0014565028133561413,-0.0004107201665105774,96453.13006041569,,,
0.013333333333333334,0.0013683000007783433,-0.0037975203784691904,21.076037660676405,-0.0024724287889586844,0.0002942390342742654,-8.466093743744448e-05,,,,
0.016666666666666666,0.007491462182296849,0.0038054854746046854,25.583804808994923,0.0010967291380827727,0.0016459847666990817,0.002231129241366431,,,,
0.02,-0.012611244617157255,0.0005789060604354032,30.073751432819748,-0.0001998110572211664,0.0003362488079018678,-0.0012200618227858264,96456.24273290546,,,
0.023333333333333334,-5.888567053372902e-05,0.0012281596259699223,34.57055773644474,0.00047114386369643413,0.001739560892904673,-0.002177431835315564,,,,
0.02666666666666667,0.00045462406429525883,0.004140821228780249,39.068875034601774,-0.0030197688992001275,-0.0034132746483177784,-0.0006759570867426766,,,,
0.03,0.0020561651985385627,0.003445853198358326,43.54503944979807,0.00123046111674657,0.0010752161322269502,0.0016152578750247568,96453.8897390166,,,
0.03333333333333333,-0.0014681291281848205,0.0004721964190639747,48.055362823174924,-0.0014553282974261875,-0.0024132070526314345,-0.0007334581067084516,,,,
0.03666666666666667,-0.004662253255882357,0.0021995768756658237,52.543027390698754,-0.0001065547677597841,-0.00125538026816636,-0.0027023612185435126,,,,
0.04,-0.0020954231695927564,-0.005531384599717729,57.04647838959891,0.0013039881740492605,0.0035878417418169608,0.00038477448294721607,96453.31027404738,,,
0.043333333333333335,0.002933564330352772,0.0027520927374834166,60.90160253990223,0.0010337423812637036,-0.0003516900997834427,-0.00148033660076668,,,,
0.04666666666666667,0.0038838263682045445,0.004689196325651949,64.72922483391388,0.0008270166288821424,-0.0013847734056596282,-0.002787728674577252,,,,
0.05,-0.0007850942746720793,-0.0002838905539310173,68.5646225598868,-0.000966783375994769,0.0009164108176489086,-0.0025114538077731755,96452.86082028253,,,
0.05333333333333334,-0.000761216826919398,-0.0016108112523121187,72.40154678302414,0.001328789504177788,-0.0010460583898764446,-0.0019734631263170314,,,,
0.05666666666666667,0.004137780621871295,-0.0015138343680675868,76.24797422322882,-0.0012076644699725901,-0.0012215218096280544,0.0021547881039213923,,,,
0.06,0.0036860683073526856,-0.0022057907573272014,80.08951220550524,-0.0013292621519134988,0.0001622104219942128,0.002410961950418647,96450.97656918364,,,
0.06333333333333334,0.011949935456263409,-0.004956802226906276,81.28203758697232,-0.0016245778490619177,-0.0031592318992500453,-0.0012028581451965872,,,,
0.06666666666666667,-0.003416717620285867,0.004671035352676748,82.39802903886282,0.003363375411579235,0.002418505609042347,-0.0005673248927083101,,,,
0.07,0.0021919492384456256,-0.004379528679871606,83.51468804009738,0.0015746449324928705,-0.0010990734311136948,-0.0011284527156006727,96453.27089267105,,,
0.07333333333333333,-0.003060471653596635,0.003554832407055448,84.62035196023167,-0.001385268345066959,-0.002875727558507388,-0.002038952657393295,,,,
0.07666666666666667,-0.004470429618128049,0.002652679846120983,85.73421553947693,-0.0014202601725002593,0.002815802061475764,-0.0021646619825152337,,,,
0.08,-0.011938047001716866,-0.003594344346729479,86.84635325743699,-0.00133225496628014,0.0004252280957284939,0.0010919582497861849,96451.56090672298,,,
0.08333333333333334,0.0023528854886209014,-0.010647550019546443,86.6914209564195,0.000107287962965616,0.003385446462280057,-0.0009530539767482203,,,,
0.08666666666666667,-0.0003025327342582158,-0.003224097554740628,86.4876462315112,0.0006667699900449063,0.00121034798154139,0.0009817429767791006,,,,
0.09,0.007779924744402921,-0.0011792119776294584,86.28876686005613,0.00038485276926329985,-0.00013979314990969233,0.001846951934796363,96450.2410788923,,,
0.09333333333333334,-0.005004806578335682,-0.0014299494844810198,86.08179716551585,-0.0001490507520901582,0.0008590462828941295,0.0005618396563551859,,,,
0.09666666666666668,-0.0037454423828593886,-0.006719227959637516,85.8778266315203,-0.00048251529419424875,0.0002836954563496879,-0.00028576045280961714,,,,
0.1,0.004010836623236994,0.00444979054623509,85.67960313470547,0.0011780423976818014,0.0020369736947674828,0.003200205907558985,96451.78542429257,33.498632953046105,-99.3375882699251,421.602371871206
0.10333333333333335,0.003018513105100145,-0.001836222752381095,85.509741882601,0.0014134840472933153,-0.0010713858559524452,-0.003974621357623348,,,,
0.10666666666666667,0.0025048315171441408,-0.004401673078839539,85.34057689321104,0.0024121140329660287,-0.0025005444094735292,0.00021658319700587029,,,,
0.11,-0.009118433673458866,-0.0014478062805236443,85.19103169096601,9.184209140249331e-05,-0.0009708591527477368,-0.00013060480589732447,96449.40277425644,,,
0.11333333333333334,-0.0019322064375804433,-0.0015037072479371,85.01504124096701,-0.0020468888940816912,-0.0005611625204666298,-0.000572079710446557,,,,
0.11666666666666667,0.0052159083966599505,-0.002010979884306337,84.84273174210983,-0.0007244018773311093,-0.001164627727724321,0.0012352288416333994,,,,
0.12,0.009588048778479588,-0.0035434225692667384,84.6853008645674,0.0008200394478041673,-0.001840634835833278,-0.00037858876295973615,96447.676076884,,,
0.12333333333333334,-0.007249295793134885,0.0034436059798557887,84.60086346992718,-0.002261872028351741,-0.00021058121161778083,0.00042343258522611427,,,,
0.12666666666666668,-0.004553416620147475,0.006341627624075751,84.50117037755743,-0.00034715793479452424,0.0020074937972335474,-0.0006152950770843575,,,,
0.13,0.00028323249784894026,0.004954351930825845,84.40988370587114,0.002147594561069014,-2.508681799543541e-05,0.0013619863892648174,96449.18160294057,,,
0.13333333333333333,0.0037903661440812715,-0.003007526456181323,84.32652688477098,8.230931420770227e-05,-0.0038936319488849787,-0.0016977011397477535,,,,
0.1366666666666667,-0.005568031231689845,-0.005119375871271377,84.21874802094861,-0.00019660599996903862,-0.0009363114225432829,-0.0002942657778675416,,,,
0.14,-0.0022426583439261504,-0.0071898293981732505,84.13580812444653,0.00162316134989679,0.0012297681101227996,-0.0008118542173657041,96446.70519950135,,,
0.14333333333333334,-0.01162702721564396,-0.0022491494152580755,84.12664319906949,-0.0011235398135519875,-0.0005779781948296234,-0.0029515373182458257,,,,
0.14666666666666667,-0.0027986336079899076,-0.0003234305495558416,84.12975374472373,-0.0002499151950906777,-7.569351616641667e-06,0.0011899175057796321,,,,
0.15,-0.005646426177839251,0.0035339740839395767,84.13352964873158,0.0005688722526008933,-0.0017145011542444744,-0.0017076870408788193,96445.55738653618,,,
0.15333333333333335,0.0057667393172625364,0.00019395431019770087,84.130872270114,-0.0013586940759951524,-0.0011702379841470488,0.0014376852837301825,,,,
0.15666666666666668,-0.0022501133606893384,-0.004109226886374905,84.13221595509448,0.002802284618147363,-0.0033357954022481817,-0.0016645661493914453,,,,
0.16,0.014003859072825723,0.0040235343436334624,84.13267125751722,0.00020807681995761796,-0.002669575369441717,0.0013364477925868641,96444.79868594813,,,
0.16333333333333333,-0.001093423601417203,0.0004588889329071696,84.16973201114585,-0.00010420583964799359,0.002016877369195381,0.0001733192829516406,,,,
0.16666666666666669,-0.006081965211490345,-0.005428909687545517,84.21548245735259,0.0010767185752744057,0.0011688887646454538,-0.00025740133184203533,,,,
0.17,-0.0005992968907023596,0.0006803646622115316,84.25963928292616,0.00019279907102075997,-0.0038075967967905826,-0.0007825618062963806,96443.66303028357,,,
0.17333333333333334,0.00020978297030693012,-0.007612012771686504,84.29316115402133,0.00028400855883486774,0.0010354127552231497,-0.0018968712772747026,,,,
0.17666666666666667,-0.004324575898536585,0.0027839055398812696,84.34853015851652,0.001798257004924346,0.0028962352806583018,0.00017732003500069436,,,,
0.18,0.0007343873041891863,0.000369029295503301,84.39539005211365,0.0005452712160091648,0.0005682984631593545,-0.00018454239853948104,96440.95481373709,,,
0.18333333333333335,0.0023215194603237285,-0.003829132483497461,84.38496742600651,0.0016913553543139454,0.0032227885431810235,7.385427808848781e-05,,,,
0.18666666666666668,0.0024014566033968487,0.0011141908866117518,84.37625798808293,-0.001201146433901282,0.0009784303663234665,0.0030107772997287115,,,,
0.19,0.00023666949090244823,0.004291302541999375,84.37062344819387,-0.0029202795198117804,0.0002810578562116661,0.0020315308687583688,96439.80273803098,,,
0.19333333333333336,-0.002403551277504942,-0.0030162045750221664,84.35613251417992,0.0017392170384492448,0.000618337528821533,-0.000946577600498918,,,,
0.19666666666666668,0.004743415348909615,0.003503733645113649,84.35593762729434,-0.0013053090018228298,-0.0011280660669084517,-0.00045885530579223543,,,,
0.2,-0.006340700244564661,0.007392378155596543,84.3546081802973,0.001095033440699273,-0.00016319163940165367,-0.0015801590365481443,96435.79564275527,33.49864557308508,-99.33762562379316,421.7013308144977
0.20333333333333334,-0.00890526890551902,0.01097815358009947,84.36364189763785,0.0009495943876476751,0.004297794458825828,0.0005627294214803131,,,,
0.2066666666666667,-0.003193741196083984,-0.006262649114231072,84.36385309145682,0.0006281794822017964,0.0032236153160256887,-0.002277091876540484,,,,
0.21,0.004837999389842795,-0.0004102608430374127,84.39108983405417,-0.002832217522961379,-0.0006315143350034778,0.001981839654094012,96437.06324192016,,,
0.21333333333333335,0.0021875511846025848,-0.007389759015421873,84.397288066655,0.0015785991355376403,-0.0020893225440277996,-0.00048571541018982466,,,,
0.21666666666666667,-0.006031765569850984,0.006078073090772516,84.40459808379899,-0.0024465024210990616,-2.5670709083573335e-05,-0.0007048943421513186,,,,
0.22,0.005591312066523805,0.0025896951974682457,84.41367550050091,0.0030006114394175386,0.0021596504889787663,-0.002137207147441705,96433.37804267593,,,
0.22333333333333336,-0.00013851895587539733,0.006463434315944473,84.4239117682722,0.0006924194292297467,-0.0007560698901266102,-0.001309485990612957,,,,
0.22666666666666668,-0.004146392281300239,0.006500875308705705,84.44622153385644,-0.0018826601445877265,0.0018607840709877843,1.359147872096244e-05,,,,
0.23,-0.00039479115563957433,0.001630821982427634,84.46276467149185,-0.0012874698964031258,-0.00023723306360909816,0.0014207827966446443,96431.72784721083,,,
0.23333333333333334,0.00019401319029333097,0.0020651159935516257,84.46673506319547,-0.0001795255188098415,0.0024184577903859634,0.0006150226604012646,,,,
0.2366666666666667,0.009150280646754856,0.0037800794286382716,84.48174795435682,9.479163456622679e-05,0.002242676467936612,-0.0005007175592522307,,,,
0.24,0.0062904500938816684,0.007352064722375236,84.50710843999892,-0.0002781507928161264,0.00033480710407513394,0.002370984877732521,96429.9086555123,,,
0.24333333333333335,-0.0008606735728356316,0.007820331154054257,84.51504503829217,0.0008480367406855305,0.0014482640477162486,-0.001177859633204919,,,,
0.24666666666666667,0.0034811300798797276,0.00010771721888712845,84.52136709076012,0.000936829070412274,-0.001620914529457813,-0.0034510517291146017,,,,
0.25,0.0003630420693140407,-0.002176222499526337,84.53475675791479,-0.003953163012626157,0.0003185620648944376,-0.0006808570498108043,96427.60250449606,,,
0.25333333333333335,0.004573690298657328,-0.007991211830941812,84.5539983922081,-0.00204358896993492,0.0020865750086468374,-0.0010665109016794177,,,,
0.2566666666666667,-0.006152212687916662,0.0022281725528150247,84.56477521399408,0.002243463672473636,-0.0038231624920186365,0.0012360919228090867,,,,
0.26,-0.006372012532638743,0.0005802302983282604,84.57998328088387,-0.0008322856086359109,0.00018384710943970727,-0.000668660369151966,96424.56506529631,,,
0.26333333333333336,0.010397170489532353,0.0030548265806149503,84.62362953027352,0.0005571911560237687,0.0006396481185429611,-0.001428604723405642,,,,
0.26666666666666666,0.0008091601685761471,0.005173687712217904,84.68393018010723,0.004005693185073584,0.00027747060186100416,0.0019867362925481955,,,,
0.27,0.0021681831837702093,-4.991222224868548e-06,84.72648409519014,-0.0014627241624210353,-0.0017327995280296878,0.00016090764372586947,96424.15708978543,,,
0.2733333333333334,-0.009278071503644092,0.005424619364464828,84.77355812538255,-0.0005319255984937495,0.0013128277957501486,-0.0008619694374804272,,,,
0.27666666666666667,0.008542676262862288,0.0035139953490520384,84.8272506963259,-0.003178051177221306,-0.0012502384029430928,-0.0010620221709379978,,,,
0.28,0.004467227178842258,0.0013156646989963751,84.87411913867435,0.0009550710160795842,0.0011819749273551566,0.002273349171178726,96419.71478898305,,,
0.2833333333333333,-0.007774364672529057,-0.001733335557679234,84.92881308213647,-0.0013166835728045576,-0.00099100140477375,0.0002832488550082361,,,,
0.2866666666666667,-0.0041134940987676075,-0.0008232385017956689,84.96123828617169,0.0025980657165012755,0.0015280133251424997,-0.0023040876692420613,,,,
0.29,-0.004958640119603533,-0.0010117208071272511,85.0209332995361,0.0006056773102729902,0.0008202160718061099,-0.0016906009377358761,96415.51890192424,,,
0.29333333333333333,-0.0058801238989181935,2.4163809021089466e-05,85.06980014439094,-0.000938606813228247,-0.0014047028380942492,0.0018278333611337137,,,,
0.2966666666666667,-0.004946683488150159,-0.001541103057093826,85.1330148501884,-8.226517469128294e-05,0.0005604561007703157,0.0030110213374790968,,,,
0.3,0.01131711158167055,2.7760183073963014e-05,85.18482079084984,0.00048507352603489206,0.0017022764725936237,-0.0010323312286720193,96413.5311836571,33.49858213126698,-99.33760986099935,426.62138278915506
0.30333333333333334,-0.003376390680675603,0.0007206604430777935,85.22983266466855,-0.0011559775177068245,-0.0004909494900020235,0.0037789890058463876,,,,
0.3066666666666667,0.004333758975136216,-0.0031331443958383127,85.2753694435099,0.0009764327439309938,-0.0010305956995140188,0.0005442598795512881,,,,
0.31,0.00014989043115416607,-2.046915626320907e-05,85.31462734338108,-0.0004464779389592834,0.000690820456504206,0.00040385382264203747,96410.89365972142,,,
0.31333333333333335,0.0039025950369250056,0.0054474205112551985,85.37989562947104,-0.00010707697095288233,0.0006052963789416957,-0.001060856994770812,,,,
0.3166666666666667,-0.006612777876514605,0.00807192041067809,85.42990013000502,0.0006938177027595652,0.0023528662978469315,-0.002588908660555909,,,,
0.32,0.0028909713863004578,0.001428240696573493,85.45919139290692,0.0020952967828511125,-0.0025706543392710907,0.0007863642422709296,96405.68198450562,,,
0.32333333333333336,0.0038688336408253406,-0.003234602450293068,85.52108074139788,-0.000985006648209906,-0.0005384697840617512,0.0004561776330317285,,,,
0.32666666666666666,0.004452402614250577,-0.0001647273233570863,85.56589522831746,0.002364366647698412,-0.002224330362609696,-0.0012217559964353617,,,,
0.33,0.2543494561790659,0.16184115457382367,85.60108098659225,0.0010097108298706239,-0.0023294190369583406,-0.0019908492574982404,96404.47706813164,,,
0.33333333333333337,0.2523178003404581,0.15018587514412143,85.6583949604653,0.00222130439797295,-0.0011584158033533004,0.004319059378739524,,,,
0.33666666666666667,0.2555859816716603,0.15404421109266395,85.70186542929535,0.0033108810343738795,-0.0048887517002441615,-0.0016216634050828258,,,,
0.34,0.26665680303300004,0.1512955136964733,85.74902905852909,0.0008373977601020808,-0.005406295405891978,-0.0006717706641375707,96397.45201365498,,,
0.3433333333333334,0.26423727111422773,0.1665549647155691,85.80099840669222,0.0020037015320871696,-0.007550629736743662,0.0007351569639585205,,,,
0.3466666666666667,0.27389078580385817,0.15538178620501553,85.828667669274,0.002063885160837259,-0.00984361396014328,-0.0015980884644308572,,,,
0.35000000000000003,0.2686636936304686,0.14596660079192825,85.85644988532341,0.002850073440732468,-0.00877776460294873,-0.0016965869778576954,96396.92069662611,,,
0.35333333333333333,0.27096421646515345,0.1555074653683984,85.89422454593522,0.0025945473046627885,-0.010258043903755986,-0.00036287499178726804,,,,
0.3566666666666667,0.2702694806592855,0.15393935172404008,85.92504394837113,0.003796472377190913,-0.012095810841329999,0.0007829729951592042,,,,
0.36,0.2736219431300836,0.16373167692805465,85.96665536469993,-0.0022350734716734093,-0.014951586939184101,-0.0003382971873231312,96394.31941758344,,,
0.36333333333333334,0.27596723602194434,0.16778661614517887,86.01103564269285,0.00279931548223058,-0.016183104067161048,-7.589082902838807e-06,,,,
0.3666666666666667,0.2883803227304299,0.1656827563038613,86.04462204857936,0.003776630817574939,-0.017333232286231303,0.0015747511004467279,,,,
0.37,0.2728288421548779,0.1534794094154372,86.08695923047807,0.0066119713527762036,-0.01741692881178675,-0.00035460787847986893,96389.54487139737,,,
0.37333333333333335,0.2896432699957457,0.15895635510748402,86.13645016868136,0.0021689791156759668,-0.020603990968626914,-0.0001167512842681361,,,,
0.3766666666666667,0.2797880636529162,0.16760202809198385,86.17502356556663,0.005577461758009636,-0.02207160446894594,0.0005425289165907343,,,,
0.38,0.27811898062506235,0.17613022762193745,86.21954257461428,0.0013790749761714506,-0.023994778878862824,0.0008554960949061641,96385.51191490411,,,
0.38333333333333336,0.2766983268863107,0.16411074069574455,86.26918862296301,0.006186446143133113,-0.022707932118385354,0.00012327517202312066,,,,
0.3866666666666667,0.2837310649424163,0.17487803597117607,86.31442076349214,0.00414755909796538,-0.025293131514192924,0.0007766530046856221,,,,
0.39,0.2719444440757836,0.1659660470127427,86.3621191845818,0.0063153910608632485,-0.026656312127256186,-0.0006722432047868383,96381.67469181572,,,
0.39333333333333337,0.27329840304033354,0.1682834947232908,86.41473985226567,0.007424170772411827,-0.026517225965173197,-0.00024984355896379124,,,,
0.39666666666666667,0.2845236415940887,0.17330282578103895,86.46108855586816,0.008081490141681092,-0.029479667080636696,0.0004856098432921735,,,,
0.4,0.27842319656199355,0.167125968862902,86.51405615520024,0.007154437984046125,-0.032082732037487724,0.002420303180924787,96376.11693272997,33.49860765912386,-99.33760910859324,426.63299002857144
0.4033333333333334,0.2740266499673765,0.16397907285553032,86.61138659841714,0.005982674025539268,-0.035837169548190106,0.0018461859249308949,,,,
0.4066666666666667,0.279907444900493,0.16961835332704603,86.72936363705409,0.006458039765986082,-0.034389129246958174,0.00035653394029965956,,,,
0.41000000000000003,0.2799210816525185,0.1562121849605622,86.85341600524781,0.004892111391330221,-0.0380915460820681,0.0003664489708921077,96373.92593796924,,,
0.4133333333333334,0.2770440772735354,0.1796316091039346,86.96966322630412,0.00925220783411139,-0.03659638513191553,0.0008634301797924211,,,,
0.4166666666666667,0.2741771298519672,0.16839575357679842,87.0796632518207,0.009338482638075546,-0.03992586212463759,0.0014627571999067989,,,,
0.42,0.2796639690183341,0.17207023462021742,87.19779528203235,0.009884890381681699,-0.040869650659156306,0.00013322273229051794,96369.50733264566,,,
0.42333333333333334,0.2753610815253357,0.17065626400550973,87.26113645456063,0.009373040524737739,-0.04347267440053085,0.0020423751816378427,,,,
0.4266666666666667,0.28407459790853073,0.17949988715176232,87.29413043252805,0.008971183401575052,-0.04210284856893348,-0.0014009140336883241,,,,
0.43,0.27683867254578054,0.17320525266239734,87.32872770740533,0.009340142210759789,-0.04874695472802079,-0.001254185222596098,96362.42981466764,,,
0.43333333333333335,0.2653097733255837,0.17092731142346046,87.37784397214146,0.013602750052313381,-0.04843956989478309,0.0010965395652915925,,,,
0.4366666666666667,0.27495338596034796,0.17100073760111592,87.41227910910399,0.006915699888942877,-0.04921351783946906,0.00020454142790984626,,,,
0.44,0.26606006236836444,0.1844653009585173,87.43906807165537,0.013915671398888385,-0.05382559286139834,-0.0007309405203046888,96359.17835733086,,,
0.44333333333333336,0.2684775890835772,0.1648181294598483,87.49904598723543,0.008818984545425394,-0.053128935981915267,0.00138227227893246,,,,
0.4466666666666667,0.25815039046130833,0.16986411685720795,87.55244815803196,0.012075728507970535,-0.05239824825636013,0.0009554516155135563,,,,
0.45,0.2540167289978879,0.17398723308319922,87.61133123200868,0.013160604471828118,-0.05690891342630709,-0.0003699488325694253,96355.5134912178,,,
0.45333333333333337,0.25868809194689457,0.16079189707036964,87.66987439022532,0.01113315024442189,-0.06040611485885306,-0.001589728020773359,,,,
0.4566666666666667,0.2626034678954851,0.1660493949552598,87.7205541730302,0.014827366237416643,-0.06019676594401091,0.001436132130326237,,,,
0.46,0.24795871019725824,0.163407074199171,87.77712821959408,0.014586269712646663,-0.06091851066817883,-0.0006369013652213314,96352.49959133852,,,
0.4633333333333334,0.24909892081966387,0.1696252895092494,87.81594940118494,0.012440607598704028,-0.0632086493562167,-0.0007427811880780128,,,,
0.4666666666666667,0.24055072332190708,0.162269757403807,87.85201856031556,0.010324936405734083,-0.06260643982382226,-0.001688277414860421,,,,
0.47000000000000003,0.2341124748460763,0.16187700562816984,87.88958991984241,0.014518744071211882,-0.06570046578400417,0.001225001214674251,96346.37214896591,,,
0.4733333333333334,0.21999745375949112,0.16544447067418838,87.91483593591505,0.012688366553855964,-0.07080733957858265,0.0013800878526235704,,,,
0.4766666666666667,0.22927235110919417,0.15853437187495104,87.96723760939452,0.016110760068480338,-0.06910691650642782,0.00113977803414557,,,,
0.48,0.2143235529372876,0.15781010489197642,87.99445600007624,0.016093160681889547,-0.07277182145242939,-0.0007233132036865783,96343.14378383041,,,
0.48333333333333334,0.22830722833423647,0.16274431125755026,87.9849046683264,0.016410725710246044,-0.07399098261086531,0.0014330063467383137,,,,
0.4866666666666667,0.2251329812269078,0.15825614293897575,87.96298215035172,0.01450819213279409,-0.074611743240615,-0.0013992920229182826,,,,
0.49,0.20793141135988716,0.15045662696129972,87.94665634542662,0.015175598256746976,-0.07771870508297778,0.0028971822991798605,96337.31047729812,,,
0.49333333333333335,0.19748926516592924,0.15598518533194966,87.9135217871733,0.015492668462986253,-0.07935111255966115,0.0007083043640503246,,,,
0.4966666666666667,0.19110515882385873,0.15223324635604082,87.8799860852478,0.01964526123326794,-0.08303584836813344,0.0012974465554555685,,,,
0.5,0.18962649361873668,0.15895135898531892,87.86616819573999,0.01712598548151212,-0.08559330298524798,0.002099446678865127,96331.98187494402,33.49865977760537,-99.33760281562083,418.92474177475617
0.5033333333333334,0.1931955506635358,0.1370126907124761,87.9126630774368,0.01949509343088516,-0.0876337026833629,0.002319755893573334,,,,
0.5066666666666667,0.18146450002895625,0.1513446104530478,87.99169529556293,0.019194782621189233,-0.08358456246976022,-4.6616273712247944e-05,,,,
0.51,0.1672290172892544,0.13793404774703397,88.07636884987276,0.015487358742443894,-0.08239993424515005,-0.0004031046628767233,96326.07607089308,,,
0.5133333333333334,0.16612201285251696,0.1380642336571374,88.15091773813074,0.017984100373877158,-0.08652111855789114,0.0008708078567741348,,,,
0.5166666666666667,0.1514930529412366,0.14622471588675026,88.22184492302229,0.016527744413180792,-0.08863630354379266,0.0012263981105209503,,,,
0.52,0.14115918988974374,0.14016956244433038,88.30141758968225,0.016730294747072966,-0.08833336956881127,0.0008778788458980963,96319.93459279639,,,
0.5233333333333333,0.13612454477120361,0.13476711521189758,88.36982227331764,0.01705746967474785,-0.0908566993993673,-0.0007857795141984543,,,,
0.5266666666666667,0.13617590905014465,0.13277920969754511,88.43767599459095,0.019386430346523608,-0.09615434544797483,0.002050716968858859,,,,
0.53,0.12808123021027368,0.12407370654817054,88.51554048770251,0.019283079822887253,-0.09930376759082911,-0.0009021313042082263,96314.10699825303,,,
0.5333333333333333,0.10445000354747287,0.13050085846340492,88.58801087828395,0.023670799523853193,-0.09297718600858586,-0.0006765817942645954,,,,
0.5366666666666667,0.10149800522481355,0.12524049910377555,88.64576702366668,0.020622767529550473,-0.09530853573991889,-0.0007272131365193917,,,,
0.54,0.08734251868412587,0.1170976840555182,88.7135629109955,0.018794195494036398,-0.10287404550573816,0.0006901356049321874,96308.86202664995,,,
0.5433333333333333,0.0897503240960228,0.11646140640944853,88.79544741594529,0.020098891923718415,-0.10248273367081356,0.0012356385990753332,,,,
0.5466666666666667,0.07858235184767777,0.1137910280100108,88.87357757455224,0.01918749220095256,-0.09956410798328355,-0.0014656995610808229,,,,
0.55,0.07164738592527557,0.10299390170524256,88.95997591986783,0.018405650749848075,-0.10064925185629021,-0.0003875683113785949,96302.67611311462,,,
0.5533333333333333,0.06474733324713763,0.09815042956440177,89.044225791226,0.023689422036514404,-0.10335177782425706,7.584105692641473e-05,,,,
0.5566666666666668,0.05277940627909176,0.09737311003098695,89.11596039584512,0.018660049938936274,-0.1046071946728593,-0.00023195534386505714,,,,
0.56,0.03962569671310497,0.09545143099451359,89.20199859319956,0.021187771602253342,-0.10924852315677691,0.001984258962584075,96297.3637210737,,,
0.5633333333333334,0.021932428551474453,0.08540643171382886,89.2625682533791,0.024711244875593664,-0.10661560990462196,-0.0029447218401610553,,,,
0.5666666666666667,0.007217280637245752,0.09512509010883448,89.33256811936113,0.022188887169933988,-0.1107449786255898,-0.0003617252665242106,,,,
0.5700000000000001,0.01263295952344724,0.07942958199698083,89.40024847575393,0.024008773022957945,-0.1110402125453385,0.002122035469276556,96291.51978405412,,,
0.5733333333333334,-0.007340390730854342,0.07675449765844533,89.47862909332089,0.023297738897883325,-0.1109652704321139,-0.0014524233046914,,,,
0.5766666666666667,-0.015475548217148988,0.07659910889695291,89.53678748621441,0.021940380625743498,-0.11248748095780106,-0.000626403447384152,,,,
0.58,-0.0338463894802633,0.06678517856640478,89.60566206424014,0.021235099684575477,-0.11752792783092891,-0.00108514349156729,96286.76292182937,,,
0.5833333333333334,-0.036312124819766034,0.06230239881974274,89.66743637391023,0.02391789973819354,-0.11586906280534143,-0.0017907880062682058,,,,
0.5866666666666667,-0.05019017947356637,0.06397047509140966,89.72235320439951,0.02652190438941701,-0.11602398770596117,0.0013405533390985745,,,,
0.59,-0.054912867126421995,0.06231432785859029,89.77754960519816,0.0234772948991613,-0.11857930113546285,-0.0011746323791434288,96279.24053508957,,,
0.5933333333333334,-0.0828433747276736,0.051992141030770524,89.83250717706167,0.02236606437403933,-0.11926358037062532,-0.0004541546890031965,,,,
0.5966666666666667,-0.08370133468288919,0.044294435264484074,89.88045735233301,0.02202158857156955,-0.11855819477816824,0.0019454163026926357,,,,
0.6,-0.10440531083145625,0.04086702461029568,89.93113873139188,0.022797362366592806,-0.1246599323851063,0.001465076891931623,96274.06590261651,33.4986710997806,-99.33765368299667,431.5256882861011
0.6033333333333334,-0.11681714132231619,0.03501687968806114,89.98955866035607,0.02240539820883492,-0.11920518252513677,-0.00012312111770947603,,,,
0.6066666666666667,-0.12466454372868535,0.033158781115074476,90.02446348278264,0.024523616298839108,-0.12434504918310224,0.0024844198585450943,,,,
0.61,-0.15518763491341295,0.02331619156978763,90.08240096934041,0.022926150392092375,-0.1247673075231894,0.0007466008708252927,96265.09630673246,,,
0.6133333333333334,-0.15259956076156087,0.018912486599606947,90.12338698700432,0.022771982545480667,-0.12530978219660097,-0.0006095629525003193,,,,
0.6166666666666667,-0.17135766376894904,0.019502116895158468,90.17293940009976,0.023039357961458316,-0.1253422294978441,-0.00036105426247005565,,,,
0.62,-0.1850148906892105,0.0019037960450499847,90.22195815888266,0.023302058179029955,-0.12634471652174478,0.00041083130653889226,96257.92025982948,,,
0.6233333333333334,-0.20371293444626007,-0.0036376829542768474,90.28062158544786,0.025124303567217492,-0.12677533424117393,0.0009941468841130673,,,,
0.6266666666666667,-0.22341561164137544,-0.01106796252907635,90.33556960271069,0.027341156257036814,-0.12544481188979784,-0.0009556131008608869,,,,
0.63,-0.23256574505738034,-0.012722371105470288,90.40076106189939,0.026963237214547187,-0.126636136645592,-0.0025910723667785384,96254.48580383832,,,
0.6333333333333334,-0.25387442636338564,-0.00900122767500329,90.46796449946751,0.025912961869070692,-0.12600044395612936,0.0005957439467094137,,,,
0.6366666666666667,-0.2668474117862877,-0.02120870729035552,90.52577036210246,0.022284685975300873,-0.12773343387401448,0.0011402849511280954,,,,
0.64,-0.2845109200253004,-0.03843481297364215,90.59242734643102,0.02923707007884808,-0.12649416222567308,0.0020870953703273046,96245.88108858297,,,
0.6433333333333334,-0.3012718142677122,-0.04286887463706441,90.66580080542114,0.025084173473506624,-0.12738490861434584,-0.0019559294042933405,,,,
0.6466666666666667,-0.31590508507019793,-0.047067074361487216,90.75767975183197,0.02513838295741149,-0.13107425297647493,-0.0004196323101798937,,,,
0.65,-0.3255005926882448,-0.04234874904304903,90.84617671504954,0.025781047733750784,-0.12901831945895995,0.003310102474861025,96239.45525415443,,,
0.6533333333333333,-0.3440341133125898,-0.05383912613901316,90.93760380831388,0.024926283118393098,-0.1313894588722244,0.00036234595619471724,,,,
0.6566666666666667,-0.3628840266341328,-0.06403005667089848,91.02027849689748,0.025688234030502487,-0.1322994922797037,-0.00031163890918932613,,,,
0.66,-0.3797319021501146,-0.07131532912908257,91.11103353827875,0.026854674841113698,-0.1297192954980973,-0.001111878790875981,96232.90460328224,,,
0.6633333333333333,-0.39362536827525246,-0.07488202711922191,91.20083071442718,0.02563236924035431,-0.13017513899559158,0.0015172443200406841,,,,
0.6666666666666667,-0.4147602235875306,-0.07590977940005558,91.29935148598499,0.02441560900495485,-0.1326051120589531,0.003100749594844396,,,,
0.67,-0.436306373024098,-0.08392590173382937,91.3905568663148,0.024917559780944242,-0.1323048842738342,-0.0004868537441019592,96225.7634815422,,,
0.6733333333333333,-0.4603553686124572,-0.10381692446768265,91.4978010077598,0.0243764221421747,-0.130924674313703,0.0008485114816131979,,,,
0.6766666666666667,-0.47384808480629487,-0.1123656397596554,91.59123088710723,0.024527382349358078,-0.13242369356062464,-0.0007911131952540144,,,,
0.68,-0.4840554574288081,-0.10759266072669887,91.69392643405044,0.023792954021124732,-0.13348083601379793,-0.000572938279334179,96218.35405824885,,,
0.6833333333333333,-0.4993029192946594,-0.11748236885446824,91.79865448306725,0.025449876346418432,-0.1360596223654254,-7.768855853524829e-05,,,,
0.6866666666666668,-0.5184105669028045,-0.11901170038330118,91.8920638595949,0.022260686825244357,-0.12920777262766153,0.00045443755607754634,,,,
0.6900000000000001,-0.5482011484635678,-0.136146664308993,92.02400067683,0.025115054040947257,-0.1295742239601191,0.0035846281197491666,96211.82416222719,,,
0.6933333333333334,-0.558398754354661,-0.12643572024564223,92.13238144409165,0.026580747262640085,-0.12942983306155484,-7.307555468883959e-06,,,,
0.6966666666666667,-0.5778818189429147,-0.1405405325001698,92.2445421241927,0.02221922981147753,-0.1315405616551503,0.002623192998869119,,,,
0.7000000000000001,-0.5853970778347531,-0.1599361995477164,92.36606925366983,0.023096062535285275,-0.12793072011727283,0.000885946483240964,96203.7974524746,33.498606275705185,-99.33759540107813,438.2941219986051
0.7033333333333334,-0.6024023047240072,-0.15398109202056262,92.48099015473491,0.023449075262148674,-0.1278980762078464,0.0012406520470716104,,,,
0.7066666666666667,-0.6335995769007358,-0.1737311676834611,92.6008322596861,0.025419548539290685,-0.12860425185690336,-0.0007246941551989811,,,,
0.71,-0.6583226105500524,-0.19043767879003146,92.720293305769,0.023595398585493057,-0.12590282694533725,0.0002028260296715878,96196.49659635311,,,
0.7133333333333334,-0.6767794756318162,-0.19150511558427705,92.85102143960908,0.02469158728702662,-0.12682028103147294,-0.0013492142343391885,,,,
0.7166666666666667,-0.6953583386084956,-0.19786309896178816,92.97033745424787,0.02367062272785171,-0.12597299103435372,0.000743466128899154,,,,
0.72,-0.7220161238480782,-0.2066876921455711,93.0942279636933,0.025604285974843297,-0.12468014812158348,0.0007746335728431572,96189.06394938329,,,
0.7233333333333334,-0.7301452383064159,-0.20747088356316756,93.23045005930055,0.023809700437542602,-0.12407871013223841,-0.0003365348634349781,,,,
0.7266666666666667,-0.7473414619931271,-0.2280599366432659,93.36371836006033,0.02639844057208198,-0.123792719499411,-0.0015488503558373195,,,,
0.73,-0.7597498511605372,-0.22106934345794876,93.48564668897122,0.024763363946829473,-0.12175348604700509,-0.001555539518569059,96180.53620080213,,,
0.7333333333333334,-0.7794589403346109,-0.2421237075911978,93.62863081191081,0.024124049166607466,-0.12247177243654207,-0.000883143528195673,,,,
0.7366666666666667,-0.8023372347275264,-0.24560235185933166,93.76513567089566,0.020849992804669662,-0.12305070972590312,-0.00025294205068745427,,,,
0.74,-0.8302885364756871,-0.24847096781124348,93.88570141504064,0.02314183931365003,-0.11905161066482904,-5.4311202135013353e-05,96172.96998413562,,,
0.7433333333333334,-0.8361300184428468,-0.26252178744178306,94.02794197647499,0.02094657752060801,-0.11918237477180842,0.00018628474007618216,,,,
0.7466666666666667,-0.8612490927998785,-0.2763944879473442,94.16746359998096,0.023291571940027442,-0.11827067743183108,-0.001034553316109145,,,,
0.75,-0.8799122653261741,-0.270095804012607,94.30148177500413,0.023139421877218798,-0.1171582761651666,0.0029304926561284643,96163.45969608666,,,
0.7533333333333334,-0.8928815930789127,-0.27716783618792795,94.43797523448748,0.022618980372472605,-0.11610562672217925,0.0017353025647737631,,,,
0.7566666666666667,-0.9173072413751127,-0.2874370861562754,94.58336059443126,0.020693976377072806,-0.11201929818386074,-0.0003834420012406814,,,,
0.76,-0.9411531485570759,-0.2937013748426188,94.71525138688179,0.021028007168271398,-0.10989391663348483,-0.003107726821099766,96156.5941498022,,,
0.7633333333333334,-0.9447174972185005,-0.30459891831114433,94.85551245737376,0.019989809549134506,-0.11074918386165665,0.0005953921219998513,,,,
0.7666666666666667,-0.9646519314195916,-0.30703693036525015,94.99622808948575,0.02012815337492798,-0.10765220337018858,0.005664508814756847,,,,
0.77,-0.9897947323818623,-0.3186458753963436,95.14105918143551,0.016854696696274856,-0.10724941350002523,0.00013321754834069895,96147.53069482296,,,
0.7733333333333334,-1.0071914429285127,-0.32465097751556615,95.28049202959332,0.01909934706850468,-0.11058824971866082,-0.001482610636545832,,,,
0.7766666666666667,-1.019147399939918,-0.32538511238874596,95.42110815434525,0.02351335592947106,-0.10545845579195326,-0.0012993635067216757,,,,
0.78,-1.0351516974724628,-0.3405898961679262,95.54232252801565,0.018475085987691008,-0.10359674847199223,0.00045317606645582745,96138.47236001617,,,
0.7833333333333334,-1.0583833444376691,-0.34853515216813424,95.69113018858947,0.018320353918456947,-0.10239184536221144,-0.001041243003905138,,,,
0.7866666666666667,-1.076255342483025,-0.3456341478842399,95.81947719347079,0.019616123005566338,-0.09633399447512268,0.00152379532386645,,,,
0.79,-1.094480708002367,-0.3637038880958735,95.95143556521849,0.019104088254487197,-0.0978349907261497,0.0030867056025814608,96131.11985595713,,,
0.7933333333333333,-1.1047859839081826,-0.36983789244323123,96.08691172142794,0.017713636715605937,-0.0965946032482406,0.0002870289391181051,,,,
0.7966666666666667,-1.1203428725662707,-0.37300019225814507,96.21082618456504,0.015622745056240988,-0.09623009066805381,-0.001123966433451811,,,,
0.8,-1.139327607106256,-0.3872990264856135,96.35417521890096,0.013479841467793437,-0.09066893615073546,-0.0024316673443116844,96122.20325078971,33.49860937060972,-99.33763991984567,449.075146414347
0.8033333333333333,-1.1576349518845042,-0.38414662197883426,96.46596138641154,0.016938638879000673,-0.09165468240054343,0.0015675039010378698,,,,
0.8066666666666668,-1.1717579514165546,-0.3916464357204237,96.57964397145763,0.013248058217638291,-0.08537030758910923,0.00013478960957195185,,,,
0.81,-1.1800385614244324,-0.39338989251794154,96.6925208896519,0.015561680867322758,-0.08803201855799382,-0.0009006446870876626,96112.23251504736,,,
0.8133333333333334,-1.1999515987671527,-0.4003381575215665,96.81481329131938,0.011651813591511524,-0.08374848203205534,-0.0022923900686191326,,,,
0.8166666666666668,-1.2104166297731986,-0.41641773139370686,96.9192052081043,0.013437427388300633,-0.08179492175938397,-0.00023600989169014362,,,,
0.8200000000000001,-1.2268345159975251,-0.419539212736283,97.0403000577835,0.013759408557035871,-0.07903876799320315,0.000352755452119507,96105.27965717358,,,
0.8233333333333334,-1.2500100909036451,-0.4271533113606786,97.13386411217428,0.012410281685929435,-0.07649974953446431,0.0014115085287515275,,,,
0.8266666666666668,-1.2535474447078014,-0.4349190950006126,97.22643988948539,0.01577087573955687,-0.07323838829394767,-0.0035380765609003347,,,,
0.8300000000000001,-1.2754889740262172,-0.4289348696338395,97.3288234807392,0.011854790248765262,-0.0726343250755999,-0.001672782711970073,96095.7642447369,,,
0.8333333333333334,-1.288468463956625,-0.44403041584924774,97.43628842944423,0.013931491630998518,-0.06822182466444214,7.533064311997893e-05,,,,
0.8366666666666667,-1.2899771882375575,-0.4381619839878733,97.52942088859832,0.009341833161799077,-0.06600299686264692,0.00141788535496766,,,,
0.84,-1.303599382002521,-0.43843366370645515,97.62004973833332,0.012264318822316014,-0.06164755665133426,-0.0023716695088561025,96087.57136997145,,,
0.8433333333333334,-1.3166899831873755,-0.44385923654624115,97.70641150801059,0.009909583870952492,-0.06049184968004333,0.0014689404235667036,,,,
0.8466666666666667,-1.3213126380162195,-0.46144422281830616,97.77609103029536,0.011662599501623667,-0.057693758275722665,-0.0034397249148721614,,,,
0.85,-1.3358332997322262,-0.4542387661262518,97.86371899967345,0.009009460173495161,-0.05764178748244471,-9.522928065349489e-05,96078.25528852825,,,
0.8533333333333334,-1.3375570002132529,-0.46814949100863873,97.94373004071574,0.010501932443354567,-0.051866140581310616,0.002200186572692348,,,,
0.8566666666666667,-1.3644975608594054,-0.46431718134334937,98.03573491528009,0.010802878338749218,-0.051944008139948726,0.00017856039768899645,,,,
0.86,-1.3604763647374116,-0.46826544105904483,98.10881038327429,0.009317580363968316,-0.04709558267232194,0.0026701414149435604,96066.5325282793,,,
0.8633333333333334,-1.3741280178460888,-0.4677929438091297,98.18393675277143,0.008614251934062366,-0.04740220797467621,0.00020030172957643004,,,,
0.8666666666666667,-1.3752577525806071,-0.47103842894554454,98.26273327759701,0.006322930116639868,-0.043174432996544686,0.0014313031099046872,,,,
0.87,-1.3856299274557258,-0.4742021237532651,98.33605236455332,0.007044835572350119,-0.04163377912932815,-0.0020594970542729615,96059.7851085224,,,
0.8733333333333334,-1.4036868381113543,-0.47063508386781233,98.41035859303045,0.0010876094535741932,-0.037762525235426864,-0.0012010965614430672,,,,
0.8766666666666667,-1.403134883459623,-0.47372292050389536,98.47845195820416,0.006011500319270821,-0.03335494440434248,-0.0019863204533919036,,,,
0.88,-1.4185905191418062,-0.48228406520336004,98.55420096658956,0.003356831447659407,-0.030107110652528624,-0.0020343773991278813,96049.54827162412,,,
0.8833333333333334,-1.408612046672897,-0.48735639973963074,98.61412277602642,0.004342923608910506,-0.026677025596560006,0.0020788434547891845,,,,
0.8866666666666667,-1.4172447899906235,-0.48369860187998015,98.6982078954062,-0.0008652371766081999,-0.026021659863525497,-0.0016350586578110175,,,,
0.89,-1.4241492789833083,-0.48440051993413485,98.76702230986122,0.0017768012391799523,-0.024338695020545767,-0.0005320817680930754,96037.67924824334,,,
0.8933333333333334,-1.421679545759369,-0.48641912643377705,98.84756169767694,0.0034940954131952853,-0.017417780670516515,-0.00044323036951684987,,,,
0.8966666666666667,-1.4262855133387522,-0.48535139139120426,98.91687325400017,0.0014675151604356344,-0.01695574289480673,-0.0007508172797263087,,,,
0.9,-1.443211555948387,-0.4893038498356303,98.99782771093663,-0.0009699753261258931,-0.015748649232597618,-0.0024236444671160997,96028.05644670501,33.498644359039886,-99.33761436523571,451.67873530333213
0.9033333333333334,-1.4255569262649375,-0.48793867793604623,99.06613162040469,0.001302294482969178,-0.01247673162355988,0.004014858810540529,,,,
0.9066666666666667,-1.4493031973837445,-0.47382007283182515,99.14549898568076,-0.0017939536953183758,-0.009006515589631428,-0.0015098400342682388,,,,
0.91,-1.4396145349202505,-0.4851754619646668,99.2205662985956,-0.0014508001998118879,-0.0056054378142633065,0.0013899389081149097,96017.98257516221,,,
0.9133333333333334,-1.427026948772094,-0.4822748440009985,99.29827987197908,-0.0015597825729891295,-0.001935014550003715,0.0006138596841770066,,,,
0.9166666666666667,-1.430472844352728,-0.48601113991797884,99.36716457722349,0.0014279466797952845,-0.0035263903453725746,0.0038436270166183513,,,,
0.92,-1.4378902768703188,-0.4735377351836439,99.44633457910017,-0.001752963985788135,0.0015514983105604585,0.0008150691833810636,96009.49623472657,,,
0.9233333333333333,-1.4236726095914887,-0.4791564075632784,99.51548000330469,-0.0020099615606383155,0.00550621920864746,0.00095691538688179,,,,
0.9266666666666667,-1.4298243835304911,-0.4643636507380375,99.58322421321495,-0.003328041059743836,0.006821837667909093,0.0016854443458657361,,,,
0.93,-1.4357437754732434,-0.46693667524271665,99.66735564620276,-0.005727909371345729,0.011654909811146193,-0.0027606147260442783,95997.77844529282,,,
0.9333333333333333,-1.4224606425640403,-0.45746233768495154,99.73861400006724,-0.004053529146765648,0.011674807910862362,-0.0026296475295730436,,,,
0.9366666666666668,-1.419696976207515,-0.4670524144707101,99.8034558238656,-0.004457882687437032,0.016056973762085848,0.003151706490562353,,,,
0.9400000000000001,-1.406346278494337,-0.46219254412163346,99.8856328686536,-0.006177277724366619,0.017549816800534326,-0.0014255438322213756,95989.71552046247,,,
0.9433333333333334,-1.4032106941351215,-0.4574445744003512,99.94617051896992,-0.008049856585678597,0.019324080753211126,0.000905810713097002,,,,
0.9466666666666668,-1.3973573690691294,-0.46219781819508104,100.00153242161879,-0.007072570418074968,0.024033454999187,0.0005666118228952467,,,,
0.9500000000000001,-1.40038805429427,-0.44161529414646555,100.05781361747924,-0.006378792638225074,0.02382445362106228,0.0015393813520485973,95976.43810795732,,,
0.9533333333333334,-1.3776338140853226,-0.4513613776994921,100.12548886364436,-0.00892214434983091,0.026399773735043475,-2.751324530040548e-05,,,,
0.9566666666666668,-1.367642410978439,-0.43572671742141267,100.18301708258286,-0.00972149429919347,0.028908741828758137,0.0008545658416079161,,,,
0.96,-1.3629727700759786,-0.42502837333376925,100.24309250489287,-0.007837853793468182,0.03295558506979893,-0.0031522852396800487,95967.56586436702,,,
0.9633333333333334,-1.3575778156093519,-0.42390004699090533,100.29076990937558,-0.007420478423088725,0.036072296950458625,-0.0020788388273532046,,,,
0.9666666666666667,-1.3422316263139786,-0.42035796247736656,100.35507587166501,-0.012070361385723028,0.036944957484084266,0.0027375831212533637,,,,
0.97,-1.3313530096978496,-0.41039620638394286,100.39333390962989,-0.010275363648034545,0.03786499336390856,0.0002449120394527304,95954.84857211687,,,
0.9733333333333334,-1.323432929862534,-0.4013438577004207,100.43930151230843,-0.010934301608208935,0.044042547253002565,0.0012439347173702955,,,,
0.9766666666666667,-1.3049390761046709,-0.39039339119316363,100.4816353134747,-0.012235358449810812,0.043044773343638515,0.0016745871946914914,,,,
0.98,-1.2737375375092175,-0.4007781716629815,100.53948651767368,-0.010949953616512024,0.04566450192923991,0.00020578228222564173,95945.7572933281,,,
0.9833333333333334,-1.2838421810972933,-0.37784853708140564,100.56484239880106,-0.012710015224053786,0.046194543837309324,0.00025059856452894544,,,,
0.9866666666666667,-1.2655193419607773,-0.3686045552894831,100.59103073128297,-0.011662651631365123,0.0485298453348918,0.0020656274505091387,,,,
0.99,-1.2508816472106155,-0.3578835753528856,100.62038391713202,-0.013066567772299318,0.0518174109172161,-0.0004448270830553781,95934.72973243988,,,
0.9933333333333334,-1.2399353226970047,-0.34979586133637053,100.63581446153042,-0.014914334030605231,0.0509239766652362,0.0014611476220528531,,,,
0.9966666666666667,-1.2145706294132814,-0.34259410360838916,100.67485344378082,-0.01160991671074698,0.050645709956018,-0.0009643640933222089,,,,
1.0,-1.20233739794591,-0.33403600876295964,100.68650899789945,-0.013067027177593112,0.05517553641491579,0.0017718663570322607,95922.48963985103,33.49859710647596,-99.33764094738238,461.3662998673886
1.0033333333333334,-1.1836734289568924,-0.3200379150515248,100.70218387783876,-0.014420422716933595,0.0618483517910654,0.0026282682699093,,,,
1.0066666666666668,-1.1740900055189025,-0.31660405494958255,100.71757096089544,-0.01015845963972886,0.05898573469889059,-0.0028756294855422876,,,,
1.01,-1.157554321654919,-0.3068888064853879,100.73648306760508,-0.016454816990149623,0.060494120658031975,-2.4773250606428043e-05,95913.37472175134,,,
1.0133333333333334,-1.1257064528801795,-0.2910390186680252,100.75615325970168,-0.015805704797887697,0.05993892685911715,-0.0012427526041696609,,,,
1.0166666666666668,-1.1181434081816557,-0.2902177427681655,100.7791671021895,-0.015566851688097407,0.06008286618727493,0.0005861645005094635,,,,
1.02,-1.0940003790287811,-0.2752163902274126,100.78810715471306,-0.016278551103833267,0.06533291965519628,-0.0005418963039080524,95901.3787097366,,,
1.0233333333333334,-1.0760435177248575,-0.26166394307214247,100.80230052468895,-0.013913199921514652,0.06490935184415794,0.0014286116670003267,,,,
1.0266666666666668,-1.0526066104947591,-0.2611407243015826,100.81831057155212,-0.011997872977301084,0.06318316738605967,-0.0007822121197119187,,,,
1.03,-1.0257767349834144,-0.23922988407485107,100.8314730084005,-0.017706300549582634,0.06549467810741436,-0.0007748828969220356,95889.79799029586,,,
1.0333333333333334,-1.017427099292341,-0.22492244702054415,100.85419449178406,-0.015381612071626747,0.062395355258086635,-0.0005216047869241252,,,,
1.0366666666666666,-0.9956783221902176,-0.22525427280816873,100.86517354631515,-0.014911529873313309,0.06857100688458759,-0.0027593828066660867,,,,
1.04,-0.9685763032724042,-0.2151120854257947,100.8818712554763,-0.015175028295307036,0.06870997312232206,-0.002388590638811733,95878.11279157578,,,
1.0433333333333334,-0.9435288471140957,-0.19410500777176942,100.9058737286794,-0.017829111604116304,0.06666250689678926,0.0013258626879564545,,,,
1.0466666666666666,-0.9336960392763174,-0.18898946559717608,100.92869596175126,-0.014541373275522523,0.06946275909038005,-1.782548674232087e-05,,,,
1.05,-0.8980691267045283,-0.17642890186097765,100.93989163907598,-0.013132800712877313,0.06868866518712785,0.0003489430051586926,95865.6388927329,,,
1.0533333333333335,-0.8789103275817692,-0.15662256063410848,100.97153496177681,-0.013859473113024271,0.06682334655252156,-0.0017351308675694565,,,,
1.0566666666666666,-0.8516362980229221,-0.15505651857300998,100.98838041469479,-0.01467737908247964,0.07011918962800123,-0.0017323548797205,,,,
1.06,-0.8398458842316059,-0.13600462719072018,101.01540575085069,-0.015428792982434042,0.07206536201732341,0.0021587960426996343,95854.2413263415,,,
1.0633333333333335,-0.8203014231122467,-0.12122889167023941,101.04280338572102,-0.01588015719147989,0.06744605399024259,0.0020386878060140987,,,,
1.0666666666666667,-0.7924481301380913,-0.11554013619262853,101.07982311889661,-0.01610920474752407,0.06869787688941205,-0.0012869928606894536,,,,
1.07,-0.7675273906802443,-0.11299683931608445,101.11360596371868,-0.015807995057308365,0.06899398604271625,-0.0007449599125029774,95842.17297548556,,,
1.0733333333333335,-0.7450232475486108,-0.09193953068009157,101.15433013417417,-0.01893509590812212,0.07208020072876455,-0.001209127794378217,,,,
1.0766666666666667,-0.7129029402980703,-0.07901868438892835,101.18185221011801,-0.013486555278295311,0.06879835342949017,-0.002559891001225253,,,,
1.08,-0.6916099296223892,-0.0704509950987036,101.23313462688893,-0.016148304688531376,0.06703820480510796,0.002109962447468477,95829.7184651544,,,
1.0833333333333335,-0.678136481582926,-0.04857170130031725,101.2612622494775,-0.014866945976149295,0.06611856678162535,-0.0016086827969759856,,,,
1.0866666666666667,-0.6464436314739564,-0.04873518569228328,101.30479168327577,-0.015378533550640778,0.06564212736359154,-0.0014852809464736504,,,,
1.09,-0.6294587863329354,-0.04238845507011545,101.34618485921621,-0.017332531066526383,0.06546616901458728,-0.000722884545915107,95817.49750349704,,,
1.0933333333333335,-0.6085427709377212,-0.029390622589996477,101.38341196023967,-0.012677957076511535,0.06554327571114542,-0.00019238144660208316,,,,
1.0966666666666667,-0.5869511338315896,-0.015591702253972354,101.41220651640297,-0.013627965366777154,0.06259591216321474,0.00041376405941453227,,,,
1.1,-0.559048736900314,-0.0013710896964079923,101.46284852473678,-0.014349181554764664,0.059780355730094416,0.00014297916346590572,95805.93735116825,33.49862143073196,-99.3376808455317,474.1089419893184
1.1033333333333335,-0.5476369368038791,0.007596444397962752,101.49666437783247,-0.008202421431339424,0.05905169944930239,0.003233096932203792,,,,
1.1066666666666667,-0.5210376389750531,0.016313481243493633,101.54232948410817,-0.011358251869928261,0.05861980788990203,-0.0004076976705198912,,,,
1.11,-0.4981637156680968,0.031044854010892804,101.57209834548597,-0.012504699319924303,0.05210325694169692,-0.0001866184082777809,95792.39327545333,,,
1.1133333333333335,-0.48523300500541505,0.030318679491088435,101.60549665865345,-0.011542756313078122,0.054969559423090245,-0.0005508909438418903,,,,
1.1166666666666667,-0.4599738553635096,0.05139064783704923,101.63490261061288,-0.007793217284220186,0.05333062235869354,0.00028014922420477073,,,,
1.12,-0.4370190646423445,0.05320816740073748,101.67116929017944,-0.011614657319200632,0.05516423161145912,0.0023577698556193935,95779.46653771673,,,
1.1233333333333333,-0.4227580058722286,0.07733969265036085,101.69869319933792,-0.011504176623842817,0.05008901704604028,0.002140356721438702,,,,
1.1266666666666667,-0.40374680150801223,0.06989045944335683,101.72745408149915,-0.010980659647651873,0.05182113761448173,-0.0017216459794822552,,,,
1.1300000000000001,-0.3889973819521074,0.08530383810019267,101.76932858400718,-0.009777732694286678,0.047323567129351485,0.0004479347127060802,95766.43131948882,,,
1.1333333333333333,-0.37721254195444087,0.09822758635962843,101.79238058164606,-0.010174868991368855,0.045987369415725725,-0.00032247840348083957,,,,
1.1366666666666667,-0.3604754898041294,0.09999129136753758,101.81636189956626,-0.013087939232151173,0.04330984090123859,-0.0003379747584707471,,,,
1.1400000000000001,-0.33513645173614864,0.10782657172098935,101.84691101570445,-0.009861011841981895,0.04129444090728293,0.0002853222777157874,95752.13548456892,,,
1.1433333333333333,-0.322859390366365,0.12437628119753728,101.86996123991302,-0.01007942547286819,0.04086207275195794,-0.00041215414052783587,,,,
1.1466666666666667,-0.30686545566937967,0.1244187024733267,101.90251599028294,-0.012411357700744748,0.039263173980934485,-0.003649460792041754,,,,
1.1500000000000001,-0.2902719228934608,0.13536949406868465,101.9177207540201,-0.00849790605113134,0.03838384861765947,0.000583639103508118,95740.18442386511,,,
1.1533333333333333,-0.2740664782141193,0.13167012500794503,101.9487617005678,-0.013096384449477756,0.031063500278945895,0.0005728757671072502,,,,
1.1566666666666667,-0.2579650467697302,0.15221348919732705,101.97262410067437,-0.007025712107495885,0.03012962829835327,0.000891637054294843,,,,
1.16,-0.2500153891566455,0.14317095629243334,101.99769889428265,-0.009016089437394263,0.026073059986103195,0.001285743211662038,95725.95143411776,,,
1.1633333333333333,-0.2371253914603792,0.15080076388151378,102.01803288285707,-0.007681639001234901,0.02328753919428149,-0.0008937950416615316,,,,
1.1666666666666667,-0.22149407953637706,0.1469652649947532,102.04776970765693,-0.006996074655060255,0.020997413102197694,-0.001957216743612643,,,,
1.17,-0.2255149137633257,0.16281827356796025,102.08198657114664,-0.004141875725501783,0.020830527549545747,-0.0006797954956148614,95713.1171340007,,,
1.1733333333333333,-0.2198623712933416,0.15257669063237497,102.09789157563968,-0.004243653875550939,0.019749250379720334,-0.001365382784240978,,,,
1.1766666666666667,-0.21709737022410583,0.1543386192756641,102.1224672046042,-0.004366451721642371,0.015802195497791237,0.00047736467134221514,,,,
1.18,-0.19997617392567546,0.16398674905016458,102.14028017715005,-0.004324446393823095,0.011914509796671429,-0.0026302780197331663,95702.2462477912,,,
1.1833333333333333,-0.20112862182789037,0.16393355539016338,102.17263460060173,-0.0037437907802166785,0.009065012763490714,-0.0008745849008985605,,,,
1.1866666666666668,-0.19136744853582374,0.173385252530477,102.20054377018198,4.729128050532522e-05,0.0070705392229583,0.0030021533784968936,,,,
1.19,-0.19031924422639865,0.181005849973139,102.23577978910234,-0.002377465503488758,0.0028605141030875894,-0.0005590267215052444,95687.11757430242,,,
1.1933333333333334,-0.18766018894575195,0.17523174196915883,102.26957298598764,-0.0030672934384245124,0.001659062403410462,-0.001579612230696415,,,,
1.1966666666666668,-0.1877134087658335,0.16933524922259963,102.28970556586232,0.0019545476391383933,-0.001111472654308857,0.0003763556922878461,,,,
1.2,-0.18428440213832353,0.17092994351975338,102.31945474324303,0.0008126819654830517,-0.004267240747670055,-0.0005285179613642293,95672.09518265266,33.49861609907221,-99.337609539747,486.91449985961464
1.2033333333333334,-0.18069222472457863,0.17453529314528024,102.34938652005961,-0.002630375084510781,-0.005519520121971777,0.0004953081942520801,,,,
1.2066666666666668,-0.1781761956211042,0.17005924055055682,102.37098260464906,1.229253292449892e-05,-0.006757943688835727,0.0031466484357242563,,,,
1.21,-0.17930308930440494,0.1706199501411476,102.39729215380322,-0.00010889468165682994,-0.009804689625105415,0.0007709333329224668,95659.9928876026,,,
1.2133333333333334,-0.18113598857459406,0.16995364349861766,102.42683272338752,-0.0015144889018422994,-0.011567548817398002,-0.004085477270571841,,,,
1.2166666666666668,-0.1863208261434254,0.16467969962385948,102.45730507956542,0.002675467991574657,-0.015198207105724466,-0.0010786022830116676,,,,
1.22,-0.18994350101772628,0.161349199112087,102.4940622678836,0.006245641598511631,-0.01624243624765075,-0.0002339964962327023,95644.6788468955,,,
1.2233333333333334,-0.20400446725376228,0.15196435363173194,102.51672395749932,0.0014307767154122589,-0.01750588034957807,0.0017346418301532787,,,,
1.2266666666666668,-0.20412024935917222,0.1567673701172426,102.54425169909668,0.004593611018623391,-0.021157413318181238,-0.001294699201314064,,,,
1.23,-0.20516330660226315,0.14110918396036037,102.56414277936142,0.0037413962458876055,-0.02215452740863678,-0.0018585927276275436,95631.8633284081,,,
1.2333333333333334,-0.2294969432228472,0.15072116223006574,102.58915075758229,0.006000285625568894,-0.024194810346568587,0.0018635605928988958,,,,
1.2366666666666668,-0.22889375095908288,0.1351121017543139,102.61668774651474,0.004941776083043012,-0.02995389186806176,-0.0002175738597790854,,,,
1.24,-0.2333819743244347,0.12553013651572734,102.63967040239271,0.006027284264570603,-0.031080073376830615,0.00035497051888337753,95617.30483168202,,,
1.2433333333333334,-0.2551022437604797,0.12565137758938674,102.66996788900522,0.007114439045473217,-0.03220099528688974,-0.0012687868127804487,,,,
1.2466666666666668,-0.26419646790032647,0.11319832236938004,102.68156196254603,0.006373024649789035,-0.033661066439166686,0.0006108992009811828,,,,
1.25,-0.27499360281764346,0.10948982410588223,102.69620590705084,0.004643402909015658,-0.03660782439651384,-0.0007118692455672827,95603.41637735748,,,
1.2533333333333334,-0.2980011297277243,0.1043601459495953,102.72795324175303,0.0033839432377432053,-0.03753944467963076,0.0033992204212262276,,,,
1.2566666666666668,-0.31070342795343425,0.08753636218348003,102.74309818659172,0.009003814763613931,-0.04179752802187304,-0.0005983932168431154,,,,
1.26,-0.3260050433465074,0.07564819294554609,102.7746019821324,0.009329903852137415,-0.04158141244688572,-0.00040013275678227474,95587.68802353702,,,
1.2633333333333334,-0.33725220156208846,0.06638219587188145,102.78336897692802,0.010078207128369574,-0.044064071449701134,-0.0017043974466476191,,,,
1.2666666666666668,-0.3535655105858733,0.05836765346029966,102.7920191004078,0.012631570873205274,-0.0483556422556933,-0.0002973026802114824,,,,
1.27,-0.3711635283799971,0.056173911441597335,102.81207193198637,0.008769677426596347,-0.04943102904114521,0.0009860375767760771,95574.83037074051,,,
1.2733333333333334,-0.38538068476959825,0.04134950072750696,102.83540931841992,0.009895394855437261,-0.05001445171930385,0.0023717028037482414,,,,
1.2766666666666668,-0.41952456891067785,0.021710596576397893,102.85119782822743,0.00854843887672979,-0.051200175247600226,-0.001042292100433518,,,,
1.28,-0.4316889489705236,0.011161220423068406,102.85944644450761,0.009388351631302078,-0.053217823607131544,0.00035121350802744836,95560.20409359898,,,
1.2833333333333334,-0.44834807971888346,0.006094707915717125,102.8852563067351,0.006973825507181324,-0.04909308893202779,-0.000815865289649742,,,,
1.2866666666666668,-0.4769216294227745,-0.002356442424526206,102.89758393384125,0.012519022210067876,-0.05380772086122703,-0.00023017909831035875,,,,
1.29,-0.4954635531738894,-0.016920996845442317,102.91136601998997,0.00862779501823741,-0.05497450896457189,-5.0855166852356855e-05,95544.63253865755,,,
1.2933333333333334,-0.5082903541067478,-0.031131151488968178,102.93097918519857,0.009329002299363405,-0.05551456169629939,0.0005142939725721468,,,,
1.2966666666666669,-0.5339728400527425,-0.03359439374888939,102.94812821790654,0.01046905846300208,-0.05429197653330427,-0.0013344584249273149,,,,
1.3,-0.561695356684741,-0.05070001620698235,102.96946541540024,0.011232924982221575,-0.05709169996228252,-0.0011805768893491313,95526.76155058126,33.498617603735994,-99.3375937701374,498.0098969365605
1.3033333333333335,-0.5724545965386868,-0.07148582434577302,102.9834917224215,0.010382703084322494,-0.06064724087114637,-0.0017709033245019601,,,,
1.3066666666666666,-0.5977739564273548,-0.09130603854781172,103.01785286019249,0.010465442999435621,-0.055877934254279345,0.000721992882325019,,,,
1.31,-0.634255375762564,-0.0932647065765613,103.04320534412165,0.01137526154437081,-0.057295175375287444,0.0030664205757382655,95515.27997288333,,,
1.3133333333333335,-0.6491962395831287,-0.10124571286860595,103.06424158027556,0.012740829636334886,-0.059757409338087625,-0.0004658259283225108,,,,
1.3166666666666667,-0.6710025447981969,-0.11338103691698766,103.08182118022782,0.01177018210436402,-0.05867396788579439,0.0009256664318975398,,,,
1.32,-0.6961209882797565,-0.11718004619278583,103.11519181494789,0.00757909279338688,-0.060521893498878106,-0.00153509888058246,95499.80373797475,,,
1.3233333333333335,-0.7153778209257394,-0.1324140909827646,103.13971667798658,0.01148575804207249,-0.056267015779330715,0.002195368908851199,,,,
1.3266666666666667,-0.7509344673790233,-0.15723621546450062,103.1796810564767,0.009817336591941301,-0.058845198857205995,-0.003312247130062316,,,,
1.33,-0.7614785822144359,-0.1669035376869884,103.20122825468673,0.009576978831795431,-0.057388736446734284,0.0014619474194595794,95483.37771504854,,,
1.3333333333333335,-0.7977500845971222,-0.18002242048680916,103.24293930432162,0.009180883614987265,-0.05796974546455379,-0.0024866503455089166,,,,
1.3366666666666667,-0.825631420445517,-0.19196282476382232,103.28718959505423,0.010383640867872029,-0.05521232244791342,-0.00017841475953465352,,,,
1.34,-0.8451666134100356,-0.20165135501212839,103.31840564439531,0.009478715682085418,-0.05441959215693176,-0.0013887069012476043,95468.37272099352,,,
1.3433333333333335,-0.8578594316121904,-0.20932805245089436,103.35338005111217,0.010906243241787291,-0.055820245259902396,-0.0016576371869007154,,,,
1.3466666666666667,-0.8967796705882374,-0.22468446022237556,103.39019119464436,0.0076560645914346016,-0.05509635611590046,0.0014744280058099427,,,,
1.35,-0.9107772575686973,-0.2273055023948045,103.43600134041192,0.008630930150247736,-0.05483546725240034,-0.0016997759296168435,95452.695456237,,,
1.3533333333333335,-0.9315303003315141,-0.24929256455061402,103.46767568373978,0.00890569005047481,-0.05480739723445215,0.00034494037780782464,,,,
1.3566666666666667,-0.9623134457172622,-0.25892751912918016,103.51453031066895,0.007648504864331077,-0.05293214847376919,-0.0012304753059592683,,,,
1.36,-0.9772731747034112,-0.26815922340760806,103.54933991304442,0.00671781240154992,-0.052135655317327105,0.0003989131943595159,95436.90336898652,,,
1.3633333333333335,-0.9958873146924495,-0.26587488776874196,103.60110264972228,0.008698387442877119,-0.04881289374638395,-0.0006506007043942146,,,,
1.3666666666666667,-1.0221146249006363,-0.2900245052567461,103.64181783053667,0.0058524654210697705,-0.04976537841679114,-0.0005914401069317748,,,,
1.37,-1.0314065666510641,-0.29607469943155035,103.69054368378906,0.011073904002301233,-0.04868257081404914,0.0019340121358875585,95419.2345088659,,,
1.3733333333333335,-1.0593774833859693,-0.30571969927560816,103.73384137949124,0.005756722723398581,-0.04509757339868594,0.0022112091816733925,,,,
1.3766666666666667,-1.0690793764934585,-0.3183361421170986,103.78862855701001,0.008043192176964442,-0.046147194274510195,-0.0020597221640672233,,,,
1.3800000000000001,-1.0769310216317747,-0.322903976908811,103.82868119295242,0.0036271055366840633,-0.045494675493187364,0.0006623839605026756,95405.09139264305,,,
1.3833333333333335,-1.0986449512905718,-0.3331951107017388,103.89275371282599,0.007959366391740007,-0.04056586758095383,-0.000420716409249033,,,,
1.3866666666666667,-1.1170088369520577,-0.34040711303789695,103.94071664329277,0.006313207582699126,-0.03981224977851345,-0.001625046251843112,,,,
1.3900000000000001,-1.1347544933267115,-0.3410770894057492,104.00904372854887,0.0059152966850486354,-0.03684525097854068,0.0028684958894310115,95386.68868471008,,,
1.3933333333333333,-1.1499666723304967,-0.3490920002973315,104.06140972193177,0.008525708496476748,-0.036276547052094855,-0.0013542910079217517,,,,
1.3966666666666667,-1.1642742297406368,-0.35498639903669305,104.13233851357955,0.00651389557202768,-0.035782416232341886,0.00041398406761974753,,,,
1.4000000000000001,-1.1677332295293277,-0.3630595403860599,104.18609035446434,0.005737130617865047,-0.028276814114486536,0.0011814784263968262,95371.59463058932,33.49859163585559,-99.33761141867784,503.6745706527609
1.4033333333333333,-1.1905438773831023,-0.3575385589141498,104.25957252149999,0.0030818188520429137,-0.03228818844412693,-0.002025535836192644,,,,
1.4066666666666667,-1.1931340803738377,-0.3623647826386143,104.32847024390487,-0.0006349624114634768,-0.030013354337158567,0.0009551703178137765,,,,
1.41,-1.1971601879452003,-0.3618363104841271,104.40425203178074,0.002924805382968306,-0.028189974016315147,0.0005272643309394973,95353.99293265793,,,
1.4133333333333333,-1.2099909286448718,-0.37124912201089416,104.46463545549561,0.0036996300409241198,-0.024466652523188987,0.001637727894164045,,,,
1.4166666666666667,-1.2126345615208018,-0.3660521188547767,104.53993141528716,0.0023559765223914292,-0.021840152015159996,2.2003365914681116e-05,,,,
1.42,-1.2139934728737174,-0.37454509999972807,104.61263090891484,-0.0008926682357238403,-0.022312340024784695,-0.0021786739934747585,95339.59356199234,,,
1.4233333333333333,-1.2183610649187435,-0.3710669157678179,104.67143304285017,0.0018110424714221337,-0.014201753048440272,-7.686311770113227e-05,,,,
1.4266666666666667,-1.233798990062174,-0.3699510193780217,104.72326220732398,0.0021737539106112284,-0.015866999145562048,-0.00281828217015885,,,,
1.43,-1.2264697912832416,-0.3738673880443226,104.7791739274758,-0.0014237192004107062,-0.0149484225341376,0.00023352917358867304,95320.60525292828,,,
1.4333333333333333,-1.2307425922719955,-0.38123726356853915,104.83565236950335,0.002088923172564973,-0.008893484436873985,0.0019720986462398605,,,,
1.4366666666666668,-1.2307109250436508,-0.37057538946560936,104.88344469376773,-0.0007293482345477299,-0.010641753197097115,-0.0014409630583632617,,,,
1.44,-1.2309585063461146,-0.3707272743606077,104.93681416978917,0.00024904665911557435,-0.008345679632014711,-0.0018199354850507315,95305.69610862972,,,
1.4433333333333334,-1.2238190990746096,-0.37366302468972035,104.96926484997074,-0.0010627632918018223,-0.004638746271873627,-0.0011496771797731488,,,,
1.4466666666666668,-1.2259626839100308,-0.35276181691275255,104.98358220804946,-0.00021901702612029837,-0.004718690220845084,-0.0001750320096802382,,,,
1.45,-1.2202280163172357,-0.36073099279257265,105.00942371761957,-0.004409568766883017,-0.0023732929565377027,0.001726342499114837,95289.95436553263,,,
1.4533333333333334,-1.212401160404393,-0.35764047101874313,105.03948547403814,-0.0014025207750013933,-0.0013840773719014927,-0.0031810107263466085,,,,
1.4566666666666668,-1.208091673182151,-0.34783543094920677,105.05700412638028,-0.0005220237735195322,0.0031153918630220964,0.00012941407757967167,,,,
1.46,-1.1953513616817082,-0.33991599716235765,105.08139212259798,0.000829701411256233,0.0058350759621855555,-0.001023019777932789,95272.34467219397,,,
1.4633333333333334,-1.1962734568192768,-0.33140898798669005,105.07571962399113,-0.0032462856273653253,0.0033244467039669,-0.0036011097453073045,,,,
1.4666666666666668,-1.1789642706050347,-0.32215448839221117,105.07386132616324,-0.0005991116558393718,0.006370558331137623,-0.0007369152194816276,,,,
1.47,-1.15700220542164,-0.3187821756530409,105.06673079860155,-0.004764283111940013,0.011322050020689686,-0.001092078500960984,95254.35162530575,,,
1.4733333333333334,-1.1580657415237305,-0.3149465056206556,105.04089168524989,-0.007943950613575126,0.01059141777852688,0.000889441067978925,,,,
1.4766666666666668,-1.1442153321720867,-0.30744012302007245,105.02994373742607,-0.005575100932616598,0.014302057277205599,0.00037822925800883,,,,
1.48,-1.1277839006198942,-0.2882324173067683,105.02633793313935,-0.004917777406152023,0.015220074802912473,0.0005143877781909029,95235.92154415959,,,
1.4833333333333334,-1.1188208373999842,-0.2877068706846569,104.98842626374945,-0.004434348520691402,0.016182585160104568,-0.0008973950006080372,,,,
1.4866666666666668,-1.0938970413774987,-0.2773369573180821,104.95676578734519,-0.004402506070863624,0.012869768874277791,-0.0017852597453184465,,,,
1.49,-1.0873392298734867,-0.26809068309796635,104.9231128055174,-0.008128021156398072,0.01705470600993831,-0.00039347893516434765,95219.20973410955,,,
1.4933333333333334,-1.0619002792862102,-0.26518922731504496,104.88705896241518,-0.007902468181757494,0.016779873676888865,-0.000840618312604497,,,,
1.4966666666666668,-1.0495718414475141,-0.24947501769968983,104.85844947588242,-0.004468582321019403,0.02127018677536825,-0.0003011904488669576,,,,
1.5,-1.034104650672067,-0.23221856536661348,104.82740692032277,-0.0037375334333109578,0.019661232832691194,0.003271237957587094,95203.01377376434,33.49864033758,-99.33764537606075,534.8136388881866
1.5033333333333334,-1.0160833244825882,-0.22356219699874852,104.80360098559589,-0.007285454957269593,0.018421746866284654,0.0003245174218644572,,,,
1.5066666666666668,-0.9901176554137409,-0.20824047184279765,104.77285365195827,-0.00333446013012056,0.021721725563469577,-0.0017209804559320588,,,,
1.51,-0.9829702967234659,-0.19311508217005963,104.75805974513814,-0.007563660017108389,0.022335273223127065,-0.00012855419434462328,95184.40231334361,,,
1.5133333333333334,-0.9599761125629177,-0.1836177858808827,104.74132243333912,-0.005527931487258374,0.021660309790838373,-0.0009568736160984402,,,,
1.5166666666666668,-0.9343377425357109,-0.1848193325385758,104.70872793999087,-0.004627413057398643,0.02352385916163542,0.0026949036217780143,,,,
1.52,-0.9210366390030414,-0.17545562351800323,104.7073303913607,-0.006698864971249277,0.02318382947927426,-0.000530632584997713,95167.49077228238,,,
1.5233333333333334,-0.8930959504144563,-0.1587198768265346,104.68392516998257,-0.006212277373435154,0.023055059286349572,0.0007643802061343876,,,,
1.5266666666666668,-0.8745887378889639,-0.14866329180056254,104.67837142724457,-0.00781012218881031,0.02123079713897752,-0.0006828881081978048,,,,
1.53,-0.8570621043029413,-0.14120537278824646,104.68131052008026,-0.007079827802021531,0.019666427590877302,0.0007203127473563415,95148.14303698388,,,
1.5333333333333334,-0.8276378072408611,-0.12516649260633333,104.67609540255712,-0.009860004639994155,0.021546912562966366,0.0019153283839882921,,,,
1.5366666666666668,-0.8055405166809878,-0.11019162190115786,104.66761391717539,-0.0066481496394661535,0.019936254716680094,-0.0013424178817147436,,,,
1.54,-0.8009841980981846,-0.1152931148254595,104.66944800510628,-0.006299763378548591,0.024363607757848006,0.0002841987244187498,95131.00191217932,,,
1.5433333333333334,-0.7821480881643179,-0.0951939436755589,104.66252855965324,-0.004480796461852102,0.02262397113299068,-0.0018932065493690404,,,,
1.5466666666666669,-0.7580062794684781,-0.08812613815886403,104.65814403824726,-0.006219701307718904,0.023747385384443858,-0.0010918420862754297,,,,
1.55,-0.7365366225637442,-0.06434070773297551,104.66122706118301,-0.002495942037024451,0.020446211866757474,0.00048476389233354823,95112.45451729992,,,
1.5533333333333335,-0.7218965160104787,-0.06156585402743093,104.66558049695038,-0.004531955545829296,0.01836403347924844,0.000493220257345113,,,,
1.5566666666666669,-0.7120222512460657,-0.05128910218972152,104.66247963030364,-0.009471619508559575,0.01759272053203284,-0.001106436326453587,,,,
1.56,-0.692147163539638,-0.04350883293495875,104.66213643555811,-0.006033781838473541,0.021067583688725272,0.001058892671470533,95092.09200395351,,,
1.5633333333333335,-0.6697194490239315,-0.02717726310204683,104.64811866899547,-0.007375788448275191,0.01859052895855984,0.0015430572778642817,,,,
1.5666666666666669,-0.6499557543398031,-0.02696374400913344,104.6352086212886,-0.008155352298306173,0.01624652631039029,0.00013917561266519376,,,,
1.57,-0.6347779618907268,-0.018150023297758822,104.62866018939013,-0.005274990722943906,0.016065915950797576,-0.0018051683894840425,95077.39136309737,,,
1.5733333333333335,-0.6196214117185173,-0.007313749127268854,104.62069639913781,-0.007016409672181384,0.01755222647969212,-0.0008169908949090651,,,,
1.5766666666666667,-0.6147386777277486,0.001623404140671086,104.59865703892442,-0.00614865780786014,0.013979401826202293,0.0013449166780168335,,,,
1.58,-0.5910118370013776,0.009315936646189675,104.60130798130972,-0.003873657208287346,0.010385749756688897,-0.0022799858004840853,95057.08574960043,,,
1.5833333333333335,-0.5786921515060719,0.011382678685654391,104.55006785466269,-0.00345115035645523,0.008620037892165892,0.003448694009017712,,,,
1.5866666666666667,-0.5733857878990763,0.013535349485148961,104.52477855843487,-0.0023014983141419892,0.012163235769251273,-0.0013996211076786802,,,,
1.59,-0.558527502881393,0.01694885924613516,104.50506517554842,-0.005499867074187089,0.007352261054704222,-0.0036985186706372884,95037.51649136463,,,
1.5933333333333335,-0.5484292227057594,0.01949092793033117,104.47130576379598,-0.0005282796554144198,0.007277723663982275,-0.004107241216621798,,,,
1.5966666666666667,-0.5456920139017994,0.029549931178217158,104.43463370353423,-0.0011259931507877571,0.005798226495760839,-0.0035391925068021393,,,,
1.6,-0.5447412478298564,0.03813141144482767,104.40986055232253,-0.000387091587502871,0.00237841892869606,-0.0013672290637167918,95019.00128102348,33.498607614668614,-99.33762660415304,543.3062206497455
1.6033333333333335,-0.528674182086795,0.02416817731049005,104.35248562978892,-0.0017490795403000865,0.003564404966698375,-0.002308571437179241,,,,
1.6066666666666667,-0.5221542888130831,0.04212541776571773,104.29680222842966,-0.0011990408972010168,0.00143869522990486,-0.003777763922693855,,,,
1.61,-0.5147791220626614,0.04677761681620205,104.24050241955557,-1.5173725036127109e-05,-0.00414703602161496,-0.0024063687622072885,95000.14309902371,,,
1.6133333333333335,-0.5204746650000215,0.036213112795275844,104.19388867613438,0.0011091242532843264,0.0017052964911027785,0.0024952598000855335,,,,
1.6166666666666667,-0.5156505051860104,0.03223313829861031,104.14776527422859,-0.0016840706646966646,-0.002819917632791766,-0.0014528590025536527,,,,
1.62,-0.5034486532361122,0.038057672904446824,104.0894284417733,0.00039169339373440004,-0.0030674151019698436,0.0004425058497351676,94980.88022182901,,,
1.6233333333333335,-0.5241780662274954,0.033097982938804095,104.0166312423699,-0.0017600236619724251,-0.00626823592991874,0.0025439335239157814,,,,
1.6266666666666667,-0.507410594031792,0.04559247678452626,103.9422840991118,-0.00016143404434613908,-0.007448057372472767,-0.0001326959763083821,,,,
1.6300000000000001,-0.516629808902671,0.03579621367900111,103.89149167949697,0.001716567376556219,-0.00627400480084637,0.0014375210726830577,94962.38531400678,,,
1.6333333333333335,-0.5165709945595119,0.027890451673900304,103.82372089192108,0.0015746647395936892,-0.011414171657766276,0.00019422090215647717,,,,
1.6366666666666667,-0.5270688781320635,0.03721130890891186,103.74849749380596,0.0023032581445209806,-0.012830963699428185,-0.0018251724849270511,,,,
1.6400000000000001,-0.532077390315132,0.0286141519591914,103.6956211028271,-0.0006678788485810414,-0.01306772197076993,0.0017275060910945182,94940.5286820591,,,
1.6433333333333335,-0.5365212483582723,0.01459296651453254,103.6158088386105,-0.0002786910613182985,-0.015223301663303285,-0.0016263850734223075,,,,
1.6466666666666667,-0.5467417239454393,0.00693697467916798,103.55676837388793,0.0032529530661215764,-0.015230275750194852,0.0011351347950542985,,,,
1.6500000000000001,-0.5512703779409682,0.0026857670314287315,103.498711095636,0.0004890892300764866,-0.015454485433614764,-0.0017352799721540863,94922.28547265795,,,
1.6533333333333335,-0.5601845145758569,-0.005429590873416998,103.43668722958365,0.0022072151322838733,-0.01877515570915306,-0.00093792840196803,,,,
1.6566666666666667,-0.574488411947082,-0.0065120208971741105,103.37020302959466,0.0035258383130539342,-0.019531402814988767,-0.0012229440029829753,,,,
1.6600000000000001,-0.5825594780521292,-0.011334575711353845,103.30111780566494,0.0033719692614300333,-0.02247651992315082,7.793754607719572e-06,94903.91584649311,,,
1.6633333333333333,-0.5976276767875957,-0.012984490703394552,103.24087468645405,0.004325580281446315,-0.021309711341568692,0.006318524679645302,,,,
1.6666666666666667,-0.6135448459652311,-0.027255010104157828,103.18670490663844,0.00518532410261994,-0.022331529255902285,-0.0004554979219378403,,,,
1.67,-0.624419719922047,-0.030386248246249775,103.1275877368942,0.004588589297282043,-0.02255610153388451,-0.0016295981277820715,94884.94738383421,,,
1.6733333333333333,-0.6407463405681872,-0.04850381661542169,103.06736514786286,0.0033002481049136073,-0.02431635510745242,0.00384691471121038,,,,
1.6766666666666667,-0.6556741379608985,-0.05343335972364989,103.00189601705219,0.0033882730153921175,-0.02374133655429119,0.003757108469561364,,,,
1.68,-0.6715568817089517,-0.0582960861653457,102.9466335556139,0.00542674148623226,-0.024894546908609448,-0.0013496581956309879,94863.11367242437,,,
1.6833333333333333,-0.6803662841105313,-0.06199141264474303,102.88623996540181,0.0029775761979896663,-0.028836405485506034,-0.00018274408920347442,,,,
1.6866666666666668,-0.6986443074964346,-0.08675495140092242,102.83906469937796,0.004900615814368242,-0.027877081712305803,7.830800867353521e-06,,,,
1.69,-0.7157950410345914,-0.08729821626686247,102.78017751475721,0.0013591784594792007,-0.022354741136155445,-0.0023979049404993296,94843.80950137884,,,
1.6933333333333334,-0.7422939066662022,-0.09271473410002581,102.72531458637555,0.001036463120133218,-0.029177101966536393,-0.0003402725209059948,,,,
1.6966666666666668,-0.7510058398204853,-0.10114586054020748,102.67857432290096,0.001239621291236869,-0.030692795692968698,7.27834274417031e-05,,,,
1.7,-0.7575859597293251,-0.11147232615483262,102.61957598598092,0.0035623879215282324,-0.026600814362029546,-0.00011241086242372703,94823.33517238304,33.49860261951558,-99.33758578427565,562.3623840486297
1.7033333333333334,-0.7829173460933324,-0.12218165250245538,102.56716177569743,0.002142111147853708,-0.02574847903527553,0.0003275690313252824,,,,
1.7066666666666668,-0.79782963488529,-0.13625421240658545,102.5151859569245,0.005710505398181795,-0.026133859418259794,-0.0013457150761777626,,,,
1.71,-0.8196063968838287,-0.13935736107447466,102.45959659745589,0.004390176721985734,-0.024078024065541888,-0.0001943023324847361,94801.59466001645,,,
1.7133333333333334,-0.8335635262654189,-0.154501373901399,102.40293762767566,0.002801271956664542,-0.028469990103814173,-0.0021917656996456865,,,,
1.7166666666666668,-0.8476083513961905,-0.15916329312355412,102.34159311463303,0.004357879917598489,-0.02657639713384715,0.0006433431862616219,,,,
1.72,-0.8726435304760567,-0.16972683790532792,102.28866632100095,0.006362095791934998,-0.02604287245986475,0.0015643510370295308,94783.38715458594,,,
1.7233333333333334,-0.8814049310913648,-0.17277811277521177,102.24844809603032,0.004632541092908656,-0.027218195157870665,0.0029152770788956586,,,,
1.7266666666666668,-0.9004042247677158,-0.18968961634717307,102.18516205543203,0.0030566173448395156,-0.028012220221333515,0.0020973669194503724,,,,
1.73,-0.9106245182441428,-0.19085158288673593,102.13291677254516,0.0001332453524396848,-0.026808544442534516,-0.0003011086991303853,94764.07584684624,,,
1.7333333333333334,-0.9297231505731819,-0.20853705351664087,102.08317513318715,0.0035569090294153435,-0.024322522780830188,0.000899714983241281,,,,
1.7366666666666668,-0.9437722654296069,-0.20914811870200792,102.03033859003835,0.002674419336509149,-0.022641710857862277,6.562304435842643e-05,,,,
1.74,-0.9490477064257937,-0.22232453151800496,101.98022940820627,0.0037224910443749487,-0.027389484424799583,6.361691512311151e-05,94740.08549310679,,,
1.7433333333333334,-0.964225153584495,-0.22433064223022633,101.92685656224634,0.005547790936996049,-0.023438574664358475,0.00016173139108639761,,,,
1.7466666666666668,-0.982801652418272,-0.21953964829211547,101.8916321344641,0.004721806170218246,-0.02148498220674443,-0.000846352997671558,,,,
1.75,-0.9950957743074924,-0.23514541252498983,101.84507905030803,-0.002551176375065465,-0.02364232183491299,-0.00012071055463581938,94720.50779854137,,,
1.7533333333333334,-1.0140739967307477,-0.23993424571301397,101.79281619693597,0.0044833845628663195,-0.02145616621050029,0.0040323415178254805,,,,
1.7566666666666668,-1.0145750292189901,-0.24312472089065396,101.76277835872511,0.001356073265088081,-0.018384351176024785,-0.000887129675080511,,,,
1.76,-1.0299221511812093,-0.24872828258767316,101.70013033837543,0.006064769082699106,-0.017056419708429908,-0.0015071351080559994,94698.89589120557,,,
1.7633333333333334,-1.0239837593833034,-0.2504961187202923,101.66443515447297,-0.0008362369358766106,-0.017870838568636027,-0.0010431677401213423,,,,
1.7666666666666668,-1.044520749880353,-0.2504040435759981,101.62602158769383,0.003455453009601519,-0.017278225820349484,-0.0009756085445443239,,,,
1.77,-1.0339491027811094,-0.24776500126347503,101.5821978888013,0.0011938604953613465,-0.015402095350939784,0.0007239777978019485,94680.19212604083,,,
1.7733333333333334,-1.0473086406576486,-0.25251703669347536,101.55163954311121,0.000996868506362265,-0.014390507232454624,-0.0013896037226998643,,,,
1.7766666666666668,-1.0486580834809716,-0.25223395670393517,101.50592091755794,-0.0017154707090259354,-0.012531867963899922,0.0010715199945429594,,,,
1.78,-1.058409794640815,-0.26005189233328296,101.46962717548077,0.0003864993894662726,-0.01013407649783773,-0.002157833874278728,94657.02295621476,,,
1.7833333333333334,-1.0568139302512325,-0.26310267128663234,101.43583182582769,-0.00014812261420300794,-0.01233167830243674,-0.0008879323523193959,,,,
1.7866666666666668,-1.06030367129932,-0.259333720124303,101.39823334574226,-0.0001425355983129877,-0.009528836775320959,-0.0011154256576353951,,,,
1.79,-1.0605280625010929,-0.2522519765510702,101.37223874384831,-0.0006460920472329768,-0.007511345931581474,0.002752132346027974,94634.56784463176,,,
1.7933333333333334,-1.065221650103331,-0.25318667247437776,101.33686973937026,-0.0003532221901759734,-0.0073590953677263125,0.002731663265881707,,,,
1.7966666666666669,-1.053565097501685,-0.2482843639300234,101.30395512735208,-0.0029892371595488017,-0.008939314246555993,-0.0018862807479528786,,,,
1.8,-1.055779236694764,-0.24470478649055002,101.27576694478147,-0.002541509783736631,-0.005151929301298417,0.00021847810183202177,94613.60389829177,33.49865816162493,-99.3376229354519,573.3974982418268
1.8033333333333335,-1.043914614901164,-0.24247594151084068,101.24786603947908,0.003336555334872757,-0.0038457987092116184,-0.001918824289959094,,,,
1.8066666666666669,-1.039109809088603,-0.2508334445917264,101.20857302219812,-0.005093628069313023,-0.003824641016507892,0.0013164459002298898,,,,
1.81,-1.0424886576494836,-0.2328642692159271,101.16124956123643,-0.0005838974074976234,-0.00383420032786134,-0.0011944257350042686,94594.35605096506,,,
1.8133333333333335,-1.0353877785035321,-0.22866492061401977,101.13521062751505,-0.0011734024383038694,-0.0005682514402129148,-0.0009601372963334885,,,,
1.8166666666666669,-1.0178217447927247,-0.22902223032464908,101.08940624140415,-0.0052479280298441434,-0.0025723283567785317,-0.0014984823799439086,,,,
1.82,-1.0082328899437998,-0.21591268457119067,101.06129367042585,-0.0024346591946470294,3.0049882363277804e-05,0.0015624688181544667,94572.81641743924,,,
1.8233333333333335,-1.0183849550196087,-0.2147678234914052,101.00948422237508,-0.002439489067569474,0.0014331117357042518,-0.0003563367674237965,,,,
1.8266666666666669,-1.0074348903243624,-0.2098045463918284,100.96083549219863,-0.002441638602574122,0.0007379775658924454,-0.0008425595318814817,,,,
1.83,-0.991813048105481,-0.21392974407592089,100.89707829785144,-0.003339137097856111,-0.0006107415623623073,0.0015172288594007654,94549.65753041608,,,
1.8333333333333335,-0.9779092325589149,-0.196800972623057,100.85797070483216,-0.001842868305411346,0.002969616216800231,-0.0011495099124646502,,,,
1.836666666666667,-0.966794865215582,-0.2030812142887973,100.79586608274595,-0.0006631876971087156,0.0037625167218383344,0.00012395546973291465,,,,
1.84,-0.9628197041605154,-0.18853289028694892,100.73418532382637,0.0016576943383179643,0.003008363602149385,0.000561977217786792,94527.56564537897,,,
1.8433333333333335,-0.9378966090570205,-0.17300603696067512,100.66848810482803,-0.00016033390662390304,0.005875789660817516,-0.0020742381178223174,,,,
1.8466666666666667,-0.9403279824285772,-0.16071133909412147,100.59438880248058,-0.0018128320186906865,0.003659213319824087,0.00424529191166132,,,,
1.85,-0.928742508860396,-0.1525822596102896,100.5248646428203,-0.003940691424250667,0.004542478004695033,-0.0008317976124778342,94506.88038163327,,,
1.8533333333333335,-0.9147221100401715,-0.15733338833519517,100.44030168290186,-0.003269797342375846,0.0033997099632178027,0.0007256754864070797,,,,
1.8566666666666667,-0.8988822077462523,-0.14375720069910816,100.3617490180338,-0.0043423412457418015,0.0028119637676835545,-0.001997077141251998,,,,
1.86,-0.891609941462753,-0.13785783355493716,100.28193534423477,-0.002231057219619802,0.0059398149953824786,0.001665858144259528,94483.29915355556,,,
1.8633333333333335,-0.8788796323335658,-0.1427750646495603,100.19431723962566,-0.00491354030752059,0.004424886612656248,-0.0007558946009258492,,,,
1.8666666666666667,-0.8651609822582681,-0.1253330872636367,100.08977332904861,-0.0010068605738654227,0.0027889346944372125,0.0016075098602782438,,,,
1.87,-0.853296043061047,-0.11340027525845739,99.98993564933465,-0.0038044378501447844,0.0014702895457846215,0.0009481233882251567,94461.12901088386,,,
1.8733333333333335,-0.8398146406262097,-0.10336056100016158,99.8918776373451,-0.0025904673023427957,0.003988511292531441,-0.00250789357645227,,,,
1.8766666666666667,-0.8312876310510904,-0.10606625598990366,99.79526113537477,-0.0020075121803573162,-0.0005713496565529956,0.000552136778070924,,,,
1.8800000000000001,-0.817857254835505,-0.1020263671659718,99.70095915210302,-0.0024469702292523685,0.003721860148225443,-0.003105121439877697,94438.31137410048,,,
1.8833333333333335,-0.8177631235628556,-0.09021821812806666,99.59485909504197,-0.0014942895205862293,0.003161029301491405,0.0029972696338304906,,,,
1.8866666666666667,-0.8098677290775029,-0.09031676029297663,99.48105655388288,-0.0030405092003219897,0.005496108813600745,-0.0035059863557472303,,,,
1.8900000000000001,-0.7915342373761791,-0.08090438770720448,99.37223664075421,-0.0034767814051602456,0.0015688658156853648,-0.002551480561641022,94417.67198455032,,,
1.8933333333333335,-0.7725568484573782,-0.08569043841643117,99.26589469823739,-0.0023045498228587416,0.0011316760287027603,0.0014368529228213991,,,,
1.8966666666666667,-0.7655888040722273,-0.07108354172810444,99.14638406121875,-0.0022512155831579264,0.0033723306841791823,0.0017773927560884337,,,,
1.9000000000000001,-0.7626795522933801,-0.06859878191580991,99.0400577515787,-0.00181136998313445,-0.00235059408721365,-0.00027752290172083357,94393.53418876223,33.49868200164486,-99.33761809552334,597.7787841318784
1.9033333333333335,-0.7532421458175389,-0.07165634868534038,98.92807310715234,-0.0002877096769667337,0.0016419425908480402,-0.0002903808305778892,,,,
1.9066666666666667,-0.7510000972069781,-0.06843056064717451,98.8143827963214,0.0011622552452253134,-0.0009163160611220572,0.002145339377492445,,,,
1.9100000000000001,-0.732827004842347,-0.06302643825222522,98.70524466611666,-0.0006356488525033658,-0.0021539892978087102,0.00018775812021285166,94371.23648005174,,,
1.9133333333333336,-0.7350769704061759,-0.05875066871254449,98.58619908968839,-0.004292070807231746,-0.0027092403781311765,-0.0005189045856899454,,,,
1.9166666666666667,-0.7333333933125218,-0.05081551677616454,98.46229266945166,-0.0012094620992900663,-0.003976013349403189,-0.0009567383571450526,,,,
1.92,-0.7290787638206434,-0.06101210187493207,98.35549491254639,0.0009947992356999042,-0.0037015472930326653,0.0018811442434817334,94349.79549151809,,,
1.9233333333333336,-0.7344522816459497,-0.049513230639674936,98.24543631436833,-0.000330862509738994,-0.0038731961174969355,0.002192958133937244,,,,
1.9266666666666667,-0.716028896736421,-0.050441476587941084,98.13152533156565,-0.0034169485224509804,-0.004704147481894685,-0.0007719131258859962,,,,
1.93,-0.7318333437390676,-0.03860426145056173,98.02665524584731,-0.0006940432045868827,-0.008215437829922035,-0.0008778881194927994,94326.20945520619,,,
1.9333333333333333,-0.7344786635056801,-0.06431731101691475,97.91137379896377,-0.0006782138756054358,-0.0071796039049116175,-0.001964790750395513,,,,
1.9366666666666668,-0.7193905131173558,-0.06042352264100213,97.81944860197993,-0.00011922435021977742,-0.008175489379764374,0.0001005050131138761,,,,
1.94,-0.7240202551112398,-0.06587292320553215,97.69647144117927,0.0002444352650191582,-0.010764443880669692,0.0005641136877171713,94302.92916596592,,,
1.9433333333333334,-0.7348954951756941,-0.05411164430348929,97.58883608779014,-0.0016230769197875972,-0.011237477665706867,-0.0023181090890958384,,,,
1.9466666666666668,-0.7344321643494068,-0.05550821603058336,97.48197919346055,-0.0012417188866227667,-0.006805008993606323,0.0014796536740650078,,,,
1.95,-0.7456850124393783,-0.06519377209558787,97.37235304019957,-0.00329720744107295,-0.010666441129841624,0.0002961234938931088,94279.77669778097,,,
1.9533333333333334,-0.7403061753921962,-0.05439668499535648,97.27333949257348,0.00071975734582979,-0.013992124925482442,-0.001504916422096045,,,,
1.9566666666666668,-0.7449280920107751,-0.07469904412515589,97.16364250904422,-0.00016780591027420013,-0.013732323616831642,-0.000381596996650438,,,,
1.96,-0.7531249731464735,-0.06973877117839197,97.05328482377669,0.000999480467332319,-0.009691057160316159,-0.0029270484805580996,94256.93554245842,,,
1.9633333333333334,-0.7664602280717356,-0.08254223882554407,96.9367431958317,-0.00012081687448524804,-0.011917148733725421,-0.0003268092499189962,,,,
1.9666666666666668,-0.7646529238603578,-0.0801461094986953,96.81527236194808,0.0021832840496055286,-0.013782984006588058,-0.0032465703146575863,,,,
1.97,-0.7669209075253264,-0.0929613946386224,96.7095485146761,-0.00011889466939824845,-0.013370376027499579,-0.0019365307615793444,94231.45505299197,,,
1.9733333333333334,-0.7803868285273763,-0.0843690098958353,96.57303648323321,0.002415877869832836,-0.011581811096304219,-0.0018617788503511375,,,,
1.9766666666666668,-0.7926614887787103,-0.09666713047076128,96.46239068370309,-0.0006109197705376974,-0.014395081629049357,0.0012526450606048863,,,,
1.98,-0.7965097536060436,-0.10452085576330217,96.33098670607541,-0.0007047607899445503,-0.01419155344899396,6.155507036791447e-05,94210.27127210934,,,
1.9833333333333334,-0.8053120663570739,-0.1098886987786329,96.22612275622326,0.0007137284211594782,-0.014162069213691118,-0.002234350427722901,,,,
1.9866666666666668,-0.8094123221491774,-0.10886077533602695,96.08365932542046,0.0005881450957707664,-0.01445088702712227,-0.0005821449685301487,,,,
1.99,-0.8258362267384783,-0.11599636876160457,95.97676465668063,0.0022752279933267797,-0.012890565802471377,0.0012645901750596477,94185.30218284324,,,
1.9933333333333334,-0.8409650668970823,-0.11989759053493086,95.83332275916703,0.002469978373099769,-0.015527485932861712,-0.002074822206439249,,,,
1.9966666666666668,-0.8417045946953287,-0.12680978647653976,95.70896761909124,-0.0003292977727059516,-0.015221328235036025,-0.0031948494292721864,,,,
2.0,-0.858300422003381,-0.13589871724155678,95.59297671583849,-0.0002460273649025856,-0.01658400475519114,0.00011040744824207143,94161.0119073567,33.498585694964355,-99.33766235310841,614.4181579300127
2.0033333333333334,-0.8627337663279582,-0.12669956772556987,95.45209126497247,0.00333947076413224,-0.014515064799835584,-0.000987150169313147,,,,
2.006666666666667,-0.8735373005709609,-0.1405509205930649,95.31881910112466,0.0019525064162550824,-0.01618328210059932,-0.0011555822738516129,,,,
2.0100000000000002,-0.8863997248399762,-0.1353538742653806,95.18102257917236,0.0006507864009564397,-0.014229927632512598,0.0005363030694652065,94136.42040960968,,,
2.0133333333333336,-0.8965543263945377,-0.1516669333638139,95.05521194076191,-0.0021903672387889664,-0.014637108931541179,-9.856605991155062e-05,,,,
2.0166666666666666,-0.8993007195676619,-0.16522579894772704,94.91564646475243,0.0015218841766088177,-0.014408805049453825,0.0014274719400065594,,,,
2.02,-0.9134188828742517,-0.15311501464248617,94.77607344477742,0.002878565188306083,-0.015549967180387755,-0.0010242737544191773,94113.15338970965,,,
2.0233333333333334,-0.9152938578828497,-0.15970306182760446,94.6309549187324,0.004377987908949669,-0.01510423385255792,0.0006823774232412867,,,,
2.026666666666667,-0.9252953848573912,-0.166826139105845,94.48597432083972,0.0030708379223593728,-0.014605573180439473,0.0005781217244727468,,,,
2.0300000000000002,-0.9334100176475361,-0.17242105066076682,94.34957953403682,0.003193515230729735,-0.01651943273458003,-0.0005081977272776424,94087.7634228079,,,
2.0333333333333337,-0.9480014072220999,-0.16325532290168285,94.18948962268567,0.0017059700987492842,-0.015680815311459855,-0.0016852639109000006,,,,
2.0366666666666666,-0.9413973945106551,-0.1835695522530339,94.04870799247061,0.002121796920558662,-0.012660770827328024,0.0026175560286609673,,,,
2.04,-0.9530951372971487,-0.17684582711138616,93.90175670619546,0.00031188511872190527,-0.01275596617353209,0.0017069253176809538,94067.31428321602,,,
2.0433333333333334,-0.948208965786406,-0.18844160417900915,93.72799079926598,0.0005030565702467374,-0.012266869912327059,-0.001241595444178963,,,,
2.046666666666667,-0.9735300155023168,-0.1788345811597543,93.5529641904153,0.0005611221591786847,-0.01451472098503069,-0.001951033001436231,,,,
2.05,-0.970087186902467,-0.18330788379649662,93.37306178382204,0.0012353947384559304,-0.0107690632610413,0.0017106064965935661,94040.83268906458,,,
2.0533333333333337,-0.9694551041452348,-0.17903473215331756,93.18924131717954,0.0018589385912294101,-0.012210162359186282,-0.001398584196936541,,,,
2.0566666666666666,-0.9748811084075714,-0.1813031234041242,93.02204251330397,0.00034362588513450054,-0.010513835335315486,0.0014351180360186572,,,,
2.06,-0.9739586772080956,-0.18690749955502406,92.84161855054266,4.762371303338605e-05,-0.009226862199543787,-0.00010197178281801538,94015.70266902035,,,
2.0633333333333335,-0.9753103944903155,-0.1931267056467519,92.63858029926892,0.0007840028450954977,-0.009971075914388476,-0.00043931231584693126,,,,
2.066666666666667,-0.9810918802305929,-0.18520922828542064,92.41531021912746,-0.001445765718255915,-0.01066707075762239,-0.0009598748816239804,,,,
2.07,-0.98961347098551,-0.19445418317420765,92.21444286223789,0.0024568626910635035,-0.008224625649309215,-0.0008115917522452092,93989.5911990367,,,
2.0733333333333333,-0.9679922670029683,-0.1965973570138345,92.0088657445983,0.0012816960859631135,-0.010871848888942253,0.0018465511678062408,,,,
2.0766666666666667,-0.9755613961542863,-0.19046722252182857,91.78967232469529,0.0007404677808407132,-0.008836621944580974,0.00025538495156660524,,,,
2.08,-0.9696632284337373,-0.1780997550415832,91.56845128699226,-0.0028608019350945067,-0.007386423073103766,-0.0025290915057151328,93967.68503245013,,,
2.0833333333333335,-0.9784985072807778,-0.1775088020285239,91.33722963061591,0.0015681638214043458,-0.007484306649812984,0.0007501280338862963,,,,
2.086666666666667,-0.9672425943255234,-0.18219422835060128,91.10360343761579,0.0007367952513229949,-0.00645488012800423,-0.0026354028026866778,,,,
2.09,-0.9674335488818406,-0.17673397005812067,90.86746757181284,-0.0010556048853759571,-0.006809289463583477,0.0025598362053879187,93941.46533058856,,,
2.0933333333333333,-0.9523053171382866,-0.18293267222273485,90.64272746526451,0.0016877696792566396,-0.003344980916950556,0.001127953534394612,,,,
2.0966666666666667,-0.9632306363438355,-0.1677412806992922,90.40599020356849,-0.004260836831399434,-0.004545198389743759,-0.0028823953774298125,,,,
2.1,-0.9542013696816852,-0.17357307633051913,90.16775509559741,-0.0001688014095296603,-0.0033416640107116393,0.0002144903018627571,93918.16596482042,33.49867095528423,-99.33771140830989,631.2502894787856
2.1033333333333335,-0.9511587525828107,-0.1657355648284061,89.92256454348613,-0.0022738296529042795,-0.006806054967088738,-0.0019030499473373264,,,,
2.106666666666667,-0.9564385399721608,-0.1620906950124911,89.6808993707874,-0.0017901008794599608,-0.0009245142146104943,0.0011807703708002616,,,,
2.11,-0.9451491137315817,-0.16114729549638604,89.44501907298809,0.0002806082855192353,-0.004875273237655037,-0.0010345320234207969,93892.20549818882,,,
2.1133333333333333,-0.9290790689946937,-0.1509688150830265,89.19637712695422,-0.005077549958781833,-0.004488617827903444,-0.001652914777585007,,,,
2.1166666666666667,-0.9270828245720124,-0.14806789299304068,88.95331143311459,-0.0025250140529232564,-0.004655349029800624,-0.0005113184001098078,,,,
2.12,-0.932263851381877,-0.15127121696437396,88.71301389581197,-0.00045431004906312697,-0.0030844908521059323,0.00200632343777599,93867.6530058018,,,
2.1233333333333335,-0.9174329135082404,-0.14424308875049596,88.47078592035575,-0.0018395977953366209,-0.0029119189653416993,-0.0001535236895536381,,,,
2.126666666666667,-0.9167136125514146,-0.14914832614761295,88.23694065428069,-0.0020343287565683377,-0.006370890235385997,-0.0008954364179218263,,,,
2.13,-0.9090164564249934,-0.13684750946187074,87.98558191502086,0.002778028721399403,-0.002706676362909966,0.0019973528401442107,93843.56371793854,,,
2.1333333333333333,-0.9018743414348556,-0.13270284305749003,87.74964392024053,-0.0012434733734011834,-0.004403542780054608,-0.0006607862957657765,,,,
2.1366666666666667,-0.8922536782283131,-0.1326212337865423,87.51447589458714,0.0003263696519220406,-0.004812769969317813,-0.0009141005101981645,,,,
2.14,-0.889447762537111,-0.12252748214734809,87.27630691893397,-0.004373652974492996,-0.0029637072186520686,-0.0038721799676214317,93815.48406206544,,,
2.1433333333333335,-0.8909121912496587,-0.11445404015792746,87.04522093162461,-0.0026627503467006584,-0.0054827512400206285,-0.00023450990543017166,,,,
2.146666666666667,-0.885005461554052,-0.11679014875874434,86.82263936921274,-0.0025696637209814263,-0.004349372394984861,0.00036095138482827713,,,,
2.15,-0.8705140061385462,-0.12557783977418716,86.61304107306464,-0.00041197680222793923,-0.0042503161516933095,-0.0026463187099251464,93791.74965523306,,,
2.1533333333333333,-0.8594921292765537,-0.11684209839178598,86.39722876175689,-0.001176473055962239,-0.008137631408442713,-0.0016986128543353945,,,,
2.1566666666666667,-0.8591457490101916,-0.1058416676998565,86.19152984756268,0.0007614585677492911,-0.005055182913491297,0.0014830187563090198,,,,
2.16,-0.8631688025535396,-0.1013549635217054,85.96918074505885,0.0007805517952874233,-0.00611468279185164,-0.0028035040310193447,93765.32722847928,,,
2.1633333333333336,-0.870115796240316,-0.11300232131932587,85.75982785155954,-0.004397612567428285,-0.002303770280363567,-0.0023696049918256468,,,,
2.166666666666667,-0.8558433221858257,-0.10726361659945437,85.56131330643801,-0.0011065138736522488,-0.004591045801202979,-0.0019357256219402978,,,,
2.17,-0.8497449294234746,-0.1048082815336987,85.35138342110564,0.0005654290902832642,-0.00402036644885651,-0.0009528868847999424,93739.04762005687,,,
2.1733333333333333,-0.8544807365909504,-0.11054030572721385,85.14588486655616,-0.0002283469134729442,-0.006755679599441517,0.0013705165643978702,,,,
2.1766666666666667,-0.8552023943044242,-0.1015515144393863,84.93620078759604,-0.0005873460727639761,-0.004428460479148253,-0.0009298584759833109,,,,
2.18,-0.8434430706690695,-0.09983889599361119,84.73087845443374,-0.0011473032683208665,-0.005251972449772019,0.0003964789182719826,93713.63526517579,,,
2.1833333333333336,-0.8426572480452684,-0.10273642998373458,84.52698092649523,-0.003824875124840102,-0.007054190227274862,-0.0041529512310014075,,,,
2.186666666666667,-0.8551304338074379,-0.09885283215106791,84.32173385672888,-0.004341671453478948,-0.004004181874289076,-0.0009380756657480129,,,,
2.19,-0.8426212233129983,-0.08859949146517651,84.12382958888301,0.0018007301332370355,-0.007417585234065116,0.0005936831919271104,93690.45165214279,,,
2.1933333333333334,-0.8320368008893231,-0.10567638483454014,83.92697488233306,0.0036044478576839553,-0.006686074303823393,0.002420320813017065,,,,
2.1966666666666668,-0.8342468565249833,-0.10198235348470598,83.7178128937216,0.001899225784422903,-0.008601044397026738,-0.0006593045870872111,,,,
2.2,-0.8408416490783157,-0.1083264804784244,83.5083016969102,-0.003966887411997753,-0.009085253958464344,-0.0008024620779482604,93662.0595144754,33.498624006247326,-99.33776300804247,663.231776806081
2.2033333333333336,-0.8553564579684472,-0.10350599295565588,83.31241939261099,0.000904428042349554,-0.008191001626985535,-0.0020978210298147194,,,,
2.206666666666667,-0.8586379586622404,-0.10570827521387535,83.11674883591516,-0.0007105554574997157,-0.006596126267184479,-0.002122168148802657,,,,
2.21,-0.860726626358257,-0.09988246109422586,82.92500846991112,-0.001035295579021903,-0.005713839726783432,-0.0009996052715294647,93637.26045901273,,,
2.2133333333333334,-0.8696198309265297,-0.11327442430394882,82.7267152205621,0.0016488529337756637,-0.008514778444308785,-0.0010685474906602654,,,,
2.216666666666667,-0.8595657856923161,-0.10640583344578725,82.53190899661574,0.0006797671235057353,-0.010722698306363423,-0.00029603974863594035,,,,
2.22,-0.8681238920110275,-0.10868229876221386,82.33025294768389,0.0017922284555023128,-0.008592350038413254,0.0018179473195728936,93608.06399266029,,,
2.2233333333333336,-0.8702498964778105,-0.1242440404446479,82.13672472288204,0.0019047519196822636,-0.010724046041364082,0.0014405820216215027,,,,
2.226666666666667,-0.8814355682029172,-0.11343002643565485,81.95528154933218,-0.00106663162330194,-0.011464297535323206,6.375487210935279e-05,,,,
2.23,-0.8845597225694591,-0.1246648919398254,81.75100836388978,-0.0008177126417850604,-0.011588977535895937,0.0002551546492637822,93584.57930894721,,,
2.2333333333333334,-0.8797763142451389,-0.11744853487371582,81.56148782725158,7.382545335868156e-06,-0.009573741585426562,-0.0025451796543387315,,,,
2.236666666666667,-0.8896913488438446,-0.12423485236316575,81.37223444377776,0.003556201247779408,-0.010315848714635787,-0.0016242229689870983,,,,
2.24,-0.8828614900018755,-0.12799044828866296,81.17983606194312,0.0010125675066774051,-0.009182155220012148,-0.0017141684930509161,93556.63088123011,,,
2.2433333333333336,-0.8889355373868135,-0.13439567972864458,80.9919273912048,0.0006793589944281051,-0.011244548406885544,-0.0023586431458089805,,,,
2.2466666666666666,-0.905897673021828,-0.13216736001129642,80.80454363060241,0.0017422321699364835,-0.012606229493741322,-0.002611007067088157,,,,
2.25,-0.9161860864546101,-0.1368458102701523,80.61823265045025,-0.0019179078923592407,-0.011070831450774142,0.0013288252265486926,93528.8139654921,,,
2.2533333333333334,-0.9085552290627593,-0.13246074813907482,80.43473500900296,-0.0035748545756417965,-0.010814287545656755,-4.854472797342518e-05,,,,
2.256666666666667,-0.9154130766385994,-0.13821506757425944,80.25001615168466,0.000732963992095396,-0.007373428827674734,-0.0021819952057752696,,,,
2.2600000000000002,-0.9157992136373245,-0.14363365308313616,80.05360258552946,-0.0007244832900061621,-0.01083266000175559,0.003509919369488347,93504.71779378642,,,
2.2633333333333336,-0.9264579708234468,-0.14654231467550216,79.89679996506311,-0.00047900243827555514,-0.011872289529039569,-0.00019323708776706114,,,,
2.2666666666666666,-0.9245785255133253,-0.14741215632794677,79.71878998352939,0.0005064779498675494,-0.010656671757689886,-0.001883219471884254,,,,
2.27,-0.9341345611671306,-0.1469111589786039,79.55219389675514,-0.0010397875367972311,-0.008780603202474714,0.0006360054866815178,93476.92234726655,,,
2.2733333333333334,-0.9328137275712205,-0.15509731780499791,79.38835081692996,0.0005146644177634202,-0.0112013113476083,-0.0006000051820805505,,,,
2.276666666666667,-0.9273331156020599,-0.1458448255599824,79.21906708482962,-0.0013983453504418171,-0.007611156618686438,-0.003891182279429963,,,,
2.2800000000000002,-0.9375818510067473,-0.15825374655509958,79.06156582816443,0.0013035904439118564,-0.007784391072091665,0.0014847672868748495,93451.00638413531,,,
2.2833333333333337,-0.9408235296466679,-0.15315584792827117,78.9094608622463,0.00013107061542080715,-0.010862640599711853,-0.00025761687589582897,,,,
2.2866666666666666,-0.9525643509728158,-0.14568543284798882,78.77544679219045,0.0009282425847749837,-0.01022284980550222,0.0013533440558802518,,,,
2.29,-0.9484633802366819,-0.15490448327655737,78.62342942154838,-0.0014083909654112727,-0.007451438419567641,0.0011473561944299313,93425.10060563016,,,
2.2933333333333334,-0.9533452254302172,-0.1531829796568156,78.47094123842658,0.0005603628005727466,-0.010271849109215827,-0.002882377611694624,,,,
2.296666666666667,-0.9594210809198751,-0.16430300054743283,78.31912025303609,0.002219706799517726,-0.010276862474622832,-0.0001792466957020045,,,,
2.3000000000000003,-0.9516999018892439,-0.15877429245045108,78.1848176634673,0.0002774646923247876,-0.007565558005974634,-0.0008276478315302007,93397.70750902232,33.49863172562202,-99.33764699065256,683.4948129804546
2.3033333333333337,-0.9509026163703821,-0.16041386808717212,78.01349462676187,-0.00031954686108144853,-0.009257777970276335,0.0012713556601815167,,,,
2.3066666666666666,-0.9591185535016041,-0.15682393635795328,77.85663715695745,0.0017725974016761668,-0.006345414098809339,0.0035451457344927084,,,,
2.31,-0.9536408673693535,-0.169510215883567,77.70100042203998,8.720225396043483e-05,-0.007110787882029865,0.0017920028905368131,93368.88841763433,,,
2.3133333333333335,-0.9594203971964613,-0.164814354950733,77.5354487232629,0.002430835005143383,-0.008183278705253972,0.0008289460133447341,,,,
2.316666666666667,-0.9484545747886424,-0.1583980053959068,77.36542215820675,-0.0003562551088360105,-0.009039408633009921,0.00033239052528571874,,,,
2.32,-0.9582459959251355,-0.15132120316090034,77.18845687141177,-0.00108660925929023,-0.00987552079974572,0.0006230161353079532,93344.18837254443,,,
2.3233333333333337,-0.955981992999468,-0.15163431107988812,76.99855692836508,-0.00015920187042398092,-0.005749613925285854,-0.0023610099311686472,,,,
2.3266666666666667,-0.9503091577618898,-0.1475832200842214,76.78227197997067,-8.855539661306079e-05,-0.007931135722998642,0.0002236086837368609,,,,
2.33,-0.9461743579653933,-0.1541036739447442,76.56632542592945,-0.0018720756112921109,-0.007523157508246537,0.0028440353569833387,93316.54132716182,,,
2.3333333333333335,-0.9553375028170162,-0.15032278589294304,76.35581831916454,0.0016199026906395574,-0.008970942662446491,0.001937359024250036,,,,
2.336666666666667,-0.9507608072550537,-0.15128964584358257,76.14296986743096,0.00026635859756127446,-0.00815706045810386,-0.000913517621610286,,,,
2.34,-0.9397927774196001,-0.15407234170866144,75.93838881994343,0.002891472068657619,-0.008729415226917359,-3.632789740126662e-05,93289.64379826626,,,
2.3433333333333333,-0.9455766125798831,-0.14750166754865326,75.71535847412184,-0.0031791424794666424,-0.008761642541849232,0.0005949916994345972,,,,
2.3466666666666667,-0.9349132357322991,-0.14090341626319614,75.50816903214,-0.0012878668328698917,-0.0076064478849795815,-0.001117790995661019,,,,
2.35,-0.9500045678597634,-0.14280848115783357,75.29819737426494,-0.0009394474353712022,-0.0067373103492499985,0.0019846850802654127,93261.08820026454,,,
2.3533333333333335,-0.9360381311986239,-0.13802278203293708,75.0871179895043,0.0020253525816151625,-0.0064434435765267336,0.00014174560111733614,,,,
2.356666666666667,-0.937510792827339,-0.1389115720055225,74.87109311115609,-0.0016977613191128094,-0.0053176774557561115,-0.0012183682282800043,,,,
2.36,-0.9354938551597899,-0.1365723568231859,74.65930731163472,0.0016356941641469988,-0.003951692904762679,-8.538511402256655e-05,93233.4190918872,,,
2.3633333333333333,-0.934283315147624,-0.1292129869899273,74.92774371475397,-0.00016876222652027732,-0.0033285859476784793,-0.002634559298260635,,,,
2.3666666666666667,-0.9193756214079961,-0.13457966717441777,75.34685793867787,-0.0015541323212667317,-0.0030838151225942158,1.5726908182530852e-05,,,,
2.37,-0.9265161124013,-0.13150571623984653,75.77573366160617,0.0005727592688221211,-0.006629621067011818,-0.0002857121095267167,93206.16083821467,,,
2.3733333333333335,-0.9224925301771982,-0.1313768708411691,76.19749619627467,-0.0010276817892181762,-0.007933423506205664,0.0023260843351054824,,,,
2.376666666666667,-0.9264698056875732,-0.1307733617567929,76.62443413092248,0.0017451218022705032,-0.010197853685392373,0.002964554471977341,,,,
2.38,-0.9230266520903069,-0.12703761795899515,77.05186615405944,-0.00028057385696418413,-0.007302952853501659,-0.002801706025845678,93178.76265923,,,
2.3833333333333333,-0.9281037146390445,-0.1260635300060222,77.08372749977538,-0.00014105324934981847,-0.005511876222969233,0.002058347662295639,,,,
2.3866666666666667,-0.9195172631321626,-0.12100673899412659,77.01453921103241,0.0010084842735186297,-0.006085609930313799,-0.0009407426259248846,,,,
2.39,-0.9121765181999609,-0.12263692429284558,76.95064504043084,5.2890851443709744e-05,-0.007313320454048366,-0.0004158698845855455,93149.64682005794,,,
2.3933333333333335,-0.9130412489384316,-0.12117460190786444,76.87435552853168,0.0009569796054466985,-0.009949460128885545,0.0006482063520665526,,,,
2.396666666666667,-0.9135446493100157,-0.12765576069664386,76.81444726688594,-0.0005408727589344266,-0.005825606398715945,0.0018732524211803295,,,,
2.4,-0.9217513188040699,-0.12949933332087624,76.73201596164134,0.002005302699137377,-0.005120632926639641,1.0938430875857682e-05,93124.34224949619,33.498659388264585,-99.33770975969341,713.3978277145752
2.4033333333333333,-0.9102773388347871,-0.13132548293431578,75.70620501206541,0.0004077759894843947,-0.007984725426508382,-0.0005321620368226028,,,,
2.4066666666666667,-0.9155454648304372,-0.12333300151803998,74.36861103987806,-0.005748186910593957,-0.0072691840356184124,0.0014314749942838474,,,,
2.41,-0.9111985666966169,-0.12017280209625732,73.05134226776073,-0.0007429093217270179,-0.007354607084576478,0.0013813985635632178,93096.39643798964,,,
2.4133333333333336,-0.9138741142235841,-0.12255603920113325,71.72271646373233,-0.004996477771847577,-0.006107560907111967,-0.0010915012822449721,,,,
2.416666666666667,-0.9166931931110033,-0.12540106770468887,70.38316951113387,-0.002580225153238315,-0.006638163431929946,0.0007689906954800977,,,,
2.42,-0.9123904827452954,-0.1305459884706797,69.06664102762821,0.0019677251928830203,-0.008574965618861272,-0.0012104433356247436,93067.86207349558,,,
2.4233333333333333,-0.9155601384869292,-0.11683766807301639,67.5165463140147,0.0003408326350596697,-0.005292564178823825,0.00025029180048280844,,,,
2.4266666666666667,-0.9123093667387493,-0.1204970052679968,65.92133426608574,0.0018916700842327128,-0.009387034862502586,-0.00021780844789302814,,,,
2.43,-0.9261777110793911,-0.12516351136049986,64.32403654171166,-0.0017527859427373203,-0.0037072390582594842,0.000884313884907164,93038.44500140724,,,
2.4333333333333336,-0.9168668864560372,-0.12439301083958151,62.73326732575204,-0.0005440593723639105,-0.005522430370901797,-0.0010933623230227846,,,,
2.436666666666667,-0.9212079730111511,-0.13293745642934593,61.13363203900066,-0.00148214668603618,-0.006551672764218506,0.0027134360470596084,,,,
2.44,-0.9134048591986997,-0.1276316753791317,59.53169768464422,0.0019677629312963626,-0.006344570613645236,0.0017703922149303406,93011.62928487713,,,
2.4433333333333334,-0.9191592253618777,-0.12522809047736833,57.38597608320914,0.0004614631194138069,-0.005976333210187623,0.0005451196934844294,,,,
2.4466666666666668,-0.9275662367925548,-0.1287840684130403,55.08503253381746,0.0013453144303797722,-0.010666673613882249,-0.0023053115515520133,,,,
2.45,-0.9283760113747455,-0.12539077339979604,52.77526130067898,0.00030762797340279585,-0.009705034600447082,0.002415030585695486,92981.2233802811,,,
2.4533333333333336,-0.9416554993500781,-0.12757323035677057,50.47147434484023,0.00021929137686985283,-0.006862901789438984,-5.335971052815137e-05,,,,
2.456666666666667,-0.9431400818289337,-0.12684859170970725,48.18092093150674,0.00039593560557737675,-0.008838728066085759,-0.0021931349870703324,,,,
2.46,-0.9519092937128587,-0.13047361627155554,45.86801029575521,-0.0009293820599834745,-0.009142092943708633,-0.0027172128903637026,92954.16842702696,,,
2.4633333333333334,-0.950487228975387,-0.12623368516150407,43.96944377630287,-0.0006816522984574402,-0.008528506422323685,-0.002280062689966742,,,,
2.466666666666667,-0.9551523097359882,-0.12916554662994317,42.200606466338236,0.0012783630695897472,-0.009451177680980416,-0.0010548933328988852,,,,
2.47,-0.9650454968350006,-0.12679614780633433,40.4162883020486,0.0016254242994233937,-0.007930987983504037,0.00026559996376360136,92926.3314393161,,,
2.4733333333333336,-0.9679249440928867,-0.12662504574063435,38.63877937454401,-0.0009752137593077154,-0.006832717583458416,0.0033417180716776066,,,,
2.476666666666667,-0.9680584315781928,-0.12973264370308812,36.86585601046626,0.001918144269580099,-0.010427773420361006,-0.0006615786642664731,,,,
2.48,-0.9747435601818022,-0.13329243711225203,35.1021558526591,-0.0013315667949569659,-0.008659074096722646,0.0018969735015385229,92895.19982421404,,,
2.4833333333333334,-0.9721071250253157,-0.1291337570841351,34.304668927442215,0.0026029817468841724,-0.007374731138579223,0.00046888443903392004,,,,
2.486666666666667,-0.9876628418164289,-0.13469956349248408,33.78452871709048,0.001259715592330212,-0.007375321246214635,0.002531888548952393,,,,
2.49,-0.9882759511715807,-0.13378746295733399,33.286887883718514,0.0023641805271201423,-0.0054363042463573645,-0.0004436080515553947,92867.51753215742,,,
2.4933333333333336,-0.9779737411964159,-0.12600104407114596,32.78405758258566,1.5014506517402662e-05,-0.007686328824138579,-0.000961028008040035,,,,
2.496666666666667,-0.9937541877905838,-0.1340327517850205,32.262633738531676,0.0014657297578179289,-0.008173131707349192,0.0006385358858740354,,,,
2.5,-0.9859515389264522,-0.13854808467443047,31.765597453859183,-0.0013008445330290796,-0.008821225592094282,0.0007662635377371915,92840.23354958082,33.498630655820605,-99.33775436567106,726.1816760540676
2.5033333333333334,-0.9858965405780974,-0.128380821375925,31.50020770256697,-0.001229173599147643,-0.005694793829563485,0.0020099983210925807,,,,
2.506666666666667,-1.0001097425246093,-0.14209750327079324,31.30780640207743,0.0035271849482967268,-0.0041494352850567785,1.551259916903927e-05,,,,
2.5100000000000002,-0.9835658480587504,-0.13734673701435482,31.09882629136161,-0.001680378775921939,-0.005114079259861199,0.0012742867348334071,92811.85485714753,,,
2.5133333333333336,-0.9912524660138576,-0.13707123220612652,30.896944569739773,-0.0006639281790992094,-0.006880677542762803,-0.0033579923762547758,,,,
2.5166666666666666,-0.9829499041289885,-0.13699422532530098,30.700746927923817,0.0003652251770506169,-0.006912848076329108,0.00027023497540667904,,,,
2.52,-0.9752978042521074,-0.13529667647106655,30.49776272604374,-0.0025570220579664116,-0.004438735653584305,0.001085254363723474,92782.80409548795,,,
2.5233333333333334,-0.9937775438863453,-0.12818991843413294,30.35567128254033,0.0010388899176215487,-0.006624394554015272,-0.0007600435531567259,,,,
2.526666666666667,-0.9896215563330955,-0.14468581471545874,30.225266814365437,0.0028040413572837713,-0.008720536859240133,0.00012927341985440478,,,,
2.5300000000000002,-0.9811686269749293,-0.1375832314527021,30.086849992892994,3.9600244346767524e-05,-0.004789980007933381,0.0025782729691155417,92754.4506700811,,,
2.5333333333333337,-0.9703005847239158,-0.13816475620434132,29.951549055596526,-0.00015172613355887276,-0.004949460131474642,-0.0007876950995405864,,,,
2.5366666666666666,-0.9884536850338771,-0.132642582262434,29.814775615734057,-0.0017927789527224234,-0.004267831978893178,-8.399619113550471e-05,,,,
2.54,-0.9769285872791262,-0.13620586438660345,29.6908446770155,0.00029301244914371077,-0.0068837155709250315,-0.001558211838775665,92726.68171227821,,,
2.5433333333333334,-0.9696208314919651,-0.12818697932490303,29.544768080178027,0.0016783561246493175,-0.005736586627682339,-0.001835674443408698,,,,
2.546666666666667,-0.9690028788354114,-0.14065369947084122,29.41448945016962,0.0023575062383640807,-0.00886951567932385,-0.000491840553308999,,,,
2.5500000000000003,-0.967360584591525,-0.14081256927461988,29.27543854741176,0.0021316845343380252,-0.006802525078629879,0.0013101761326571534,92698.98208711769,,,
2.5533333333333337,-0.9629169597259629,-0.13084258122909334,29.148841221774646,0.0004209901514964898,-0.006353235718786089,-0.0015595555158761975,,,,
2.5566666666666666,-0.9674807006008831,-0.13981508649263005,29.009883526482234,0.0009828530373567226,-0.004739481898067415,-0.000558777380349343,,,,
2.56,-0.9509811514578461,-0.12957529973908197,28.87100738710309,0.006199696075730862,-0.006580291171150984,0.0002990979720450278,92668.3216736488,,,
2.5633333333333335,-0.9605917648768862,-0.13582563631605524,28.7668195055673,0.0022811635557712833,-0.005070665530118966,0.0017737622804249152,,,,
2.566666666666667,-0.9556309215851632,-0.14052537298620785,28.686125457144144,0.0010904305509076243,-0.008120010075461976,-0.0014546014112773857,,,,
2.57,-0.953560195724881,-0.12542357310539187,28.599175951337173,-0.0002980846139984958,-0.0056283182129993805,-0.002145143192234921,92639.95245868822,,,
2.5733333333333337,-0.9438393580314187,-0.13617223726391442,28.523330910590012,0.00012384131468268277,-0.005429492643281275,-0.0023075997974530216,,,,
2.5766666666666667,-0.9491045766621705,-0.13676602391847975,28.41929029084515,-0.0008568052640336153,-0.00592196881138146,0.0014133013836915343,,,,
2.58,-0.944568771093678,-0.13763765735658107,28.340522070196062,-9.808887743923214e-05,-0.007159744408652679,-0.00211182150137436,92611.65179437635,,,
2.5833333333333335,-0.9475473436662248,-0.1260501481806496,28.22744078018638,0.0013593706191612652,-0.005228478229347729,-0.0020730121163190897,,,,
2.586666666666667,-0.9497779775832771,-0.1390255562155517,28.097980306919645,-0.0011998061953771488,-0.0014410726670978976,-0.002254574945871834,,,,
2.59,-0.9338296268894383,-0.13691056470803056,27.9664156792083,0.0017211597619191728,-0.007589038704872533,-0.0008632356081461405,92582.09673514377,,,
2.5933333333333337,-0.9448376856879195,-0.13101443609651564,27.846490385415656,0.0017790995277432655,-0.004033893643395346,-0.00010330300895254503,,,,
2.5966666666666667,-0.9469762451336198,-0.13418784254110502,27.719471402219707,-0.001267442913481714,-0.00647459613289683,-0.0021299434652003106,,,,
2.6,-0.9501827200056755,-0.12799831268711778,27.589345936871972,0.000514099569496295,-0.006087580957811648,0.0011789697122333235,92553.42388026083,33.49858708108241,-99.33761964959874,760.2372776241058
2.6033333333333335,-0.9511010310687312,-0.13665551174002344,27.45244453807608,0.0022798248683846647,-0.00786969268679558,-0.0013898092082747166,,,,
2.606666666666667,-0.9433530549502924,-0.1289731783975113,27.324096210161407,-0.0008989037371896182,-0.0057477801262507,0.0009043138624110589,,,,
2.61,-0.9440190091655846,-0.12160583282343926,27.187011524153704,0.0027194296157007883,-0.006031998678650247,0.0006670594954170763,92525.4531133075,,,
2.6133333333333333,-0.948433885640744,-0.1301801205525096,27.03901964428644,-0.001150291187309659,-0.0036868921932122324,-0.002486449846346338,,,,
2.6166666666666667,-0.9482657772067763,-0.1278353647370664,26.908569698764744,-0.0019051669997657223,-0.005984020624359755,-0.0003162303531383263,,,,
2.62,-0.9503237224042843,-0.13537832132411565,25.331020777629895,-0.002110950676566749,-0.007767682705384117,5.544303654556904e-05,92496.639835431,,,
2.6233333333333335,-0.9484025677375227,-0.13546362884927882,26.642744915934117,-0.0002909152631443391,-0.006200454766501517,0.0008085100581365845,,,,
2.626666666666667,-0.9552237953006091,-0.12579565371317603,26.526786850008794,0.0003506734465896183,-0.005420817916477012,-0.0012356674667213185,,,,
2.63,-0.9616652948008263,-0.13505447884119434,26.398789428731234,0.0007867539849875801,-0.004481369709477613,-0.0038013093884181736,92466.75630690444,,,
2.6333333333333333,-0.9561011264795506,-0.12375641275816913,26.275322020920477,0.00010622010361783423,-0.006178305966247341,0.004531046438355112,,,,
2.6366666666666667,-0.9553278055555351,-0.13292787111395002,26.13407533570807,0.00013020379865854177,-0.006208424801961143,0.0018618689700528105,,,,
