time_s,accelerometer_x,accelerometer_y,accelerometer_z,gyroscope_x,gyroscope_y,gyroscope_z,barometer_v1,gnss_x,gnss_y,gnss_z
0.0,-0.0014267067228546976,0.007497002703796494,-9.778323846629139,-0.00045280699594973456,0.0008146147549229967,0.00042912982336751045,96453.72223530214,33.498653823759895,-99.33758716029037,413.9178686521231
0.01,-0.0013477345679949813,0.000641812756028216,16.576691160412697,0.00022498276609021623,0.001444590057544713,-0.0001331078568586195,,,,
0.02,0.0011366997907979112,0.00544367315662061,30.07612288919164,0.0018250426636885703,-0.0011194562696539728,-0.0009088534213869001,96454.59513189981,,,
0.03,-0.000547600848408061,-0.004054702500300834,43.550367537664194,0.00044709968181128924,0.00098637217232597,0.0011075759196217266,,,,
0.04,-0.0009300186444371675,0.0013345534337406558,57.05109711361113,-0.0004324583651170247,0.0005463921629942489,-0.0003535829102919844,96453.93384058232,,,
0.05,-0.006914467313722474,0.002504841559140995,68.57073379554129,-0.001802724650741996,0.0009326591063275875,0.0007253658633901176,,,,
0.06,0.002063200611207414,-0.0014180946988296946,80.08819917915699,0.0006915486186925358,-0.002319831401708525,0.0008866767838813131,96452.78260357447,,,
0.07,0.0009085299727895967,0.001855293812067214,83.50495072525474,-0.0023084658955694953,0.0012190093575711995,2.557614409167194e-05,,,,
0.08,-0.0012453902104455046,0.0037870332420368268,86.85075731723788,-0.0010246406098797522,0.0005260841133872913,-0.001068075143665707,96451.67949826899,,,
0.09,0.0004600009978915167,-0.0028344369764523956,86.276006711526,-0.0008380049982746235,-0.0007899170568312863,0.0013659562209492094,,,,
0.1,0.007338063432247035,0.0022018227360996894,85.68049934912034,-0.0015217520187606227,0.00021462294263462485,0.0009381899186336917,96450.56263704735,33.49863451177652,-99.33764797824377,410.22716775145244
0.11,0.005911066772697935,0.0021503161351427843,85.18421188986964,0.00034477756154636805,-0.0005813930346212284,0.0018848868543488986,,,,
0.12,0.0015352556228169448,-0.0009695976237838216,84.68320871567907,5.609592328895318e-05,-0.0016874051626731756,-0.0006298057922073575,96448.94078410092,,,
0.13,0.005620330396209183,-0.000282939133590534,84.40478145064168,-0.00175337032177771,0.00010085860789076647,-0.001474615518470778,,,,
0.14,-0.0017354397675620392,-0.0038529557092031,84.13856051203413,0.00027748239701863906,-0.00047328639088618443,0.00028901083294843757,96445.41618702917,,,
0.15,-0.0024757383099014993,0.0002661494160382848,84.1317298155301,-0.000520677524476349,-0.0006683040743041416,0.0009273333649846258,,,,
0.16,0.0013878993260438585,0.0005014464970338637,84.13576244322672,0.00027757004396952413,-0.0014924599563689142,-0.0009269593630414786,96443.45383320979,,,
0.17,0.0026569847048737577,-0.0010639073252749994,84.25160472703121,-0.0007269914939004026,-0.0010474840318717774,-0.00011661278231235077,,,,
0.18,0.002294454815608131,-0.0014305778018484437,84.38747722143152,-0.0010124347622630767,-0.001020994409595582,0.0003039717037342461,96441.61261976585,,,
0.19,0.0005451683562187449,0.0003582427446001224,84.36938002502195,0.00015966227751370074,0.0009431995588423003,-8.383883286891651e-05,,,,
0.2,0.003636214827281231,-0.0010947636125408543,84.34882936599817,-0.00019223660646795656,-0.0003373395271810042,-0.0008791089255449957,96437.94050314745,33.498614785646915,-99.3376513367035,414.93674969894755
0.21,0.0023139472460715427,-0.005167167857779016,84.37890229708209,-0.00030786141146656474,0.0005592364296423192,0.0008690947074590214,,,,
0.22,0.00028238782130739215,0.0019782370219603015,84.41196811837544,0.0017263784546969892,0.0007703796258308967,-0.0002986682955698436,96433.8691965643,,,
0.23,0.0027545900211619055,0.0009715887896894391,84.45901401742334,0.0004108034964717573,-3.2325255395635114e-05,0.002163464607508277,,,,
0.24,-0.00268780706306941,0.004551227948506359,84.50182004353935,0.0008901213650637339,-0.0002416985896597213,-0.00036796600943126697,96430.32563959836,,,
0.25,0.0015734892802686514,-0.002448380420487434,84.54316868719923,0.0010708953300609856,-0.0011333195708503679,-0.0007994154632875447,,,,
0.26,0.0011218568819931208,0.0008627504222894432,84.58523239697152,-0.0007777596793266917,0.001423277119669401,-0.001301517418930177,96424.52638760525,,,
0.27,-0.002213873394333194,0.005318221002853973,84.72681216317989,-0.0001826622805791362,-0.0008001038076529529,-0.00023929315664608333,,,,
0.28,-0.0011529137355628524,0.005126692881695984,84.8772688301097,0.0004043034831141635,0.0006180715869431526,0.0008079526050188042,96418.91276628,,,
0.29,-0.0013392008367853012,0.004635396458356448,85.0237494255167,0.0017491771812967727,0.0003559373158915584,0.0012226073843422858,,,,
0.3,0.0032919106102398655,0.0039828343006047436,85.17716413652278,0.000843969899433859,0.001314654747104891,0.0010066014236630753,96413.52323833482,33.49862675269108,-99.33761902224296,426.6926833419494
0.31,0.002555446409550868,-0.001742517971655623,85.32628712218876,-0.0007154076051705407,0.0011919710251345234,0.0015406600539156687,,,,
0.32,-0.0019585614938219384,-0.005870069867953427,85.47183069149217,0.000568679099620947,-0.0014099050009772627,0.0011889039264785417,96407.76135826681,,,
0.33,0.2546145990186425,0.15107933165133317,85.60446854938878,0.0005012402338694371,-0.0013967715173810276,0.0001653975774788517,,,,
0.34,0.2674454234506875,0.15394633375646388,85.75283202366455,0.0009315475782647031,-0.005707785277769556,0.0004397060172517481,96400.52193629161,,,
0.35000000000000003,0.2664656436227405,0.15793627498125398,85.86268429807845,0.002419753676176097,-0.009070974821789165,0.00020571418293707566,,,,
0.36,0.2762636881968914,0.15927192166494747,85.96891498597898,0.003660643121699501,-0.013509717861571789,0.0008799857379624561,96394.61199053902,,,
0.37,0.27688031484651776,0.16252952390735248,86.09062482280144,0.004941413053002362,-0.01802379512503082,0.0011041123324844232,,,,
0.38,0.2843669934175759,0.17028241482371245,86.21702901663413,0.0043989729890292605,-0.021442372845164183,0.0008988266595880405,96385.22916190226,,,
0.39,0.27413239109797033,0.16860788132404014,86.36814692051668,0.006295886519646764,-0.02949685721041975,0.0011455048501269847,,,,
0.4,0.2858691923788603,0.17164686978516538,86.51115921762083,0.007969105618166857,-0.03486416212664422,-0.0004466689587649215,96378.1254939106,33.4986726045058,-99.33762525617365,423.90027751503607
0.41000000000000003,0.2741651760530667,0.17399786400091669,86.85085502335498,0.008846905255067651,-0.037047499555685266,-0.0006133860492052096,,,,
0.42,0.2781326949490041,0.17187574163940256,87.19605422298315,0.00808426501718131,-0.04328937640670915,1.4311016772155517e-05,96369.02621605775,,,
0.43,0.271270374654843,0.17300421691543352,87.32827057365719,0.00983948223044878,-0.04674062695256565,-0.0011036465477307989,,,,
0.44,0.2663204615032661,0.17124249929255175,87.44923257168129,0.01156052252128503,-0.053910620105642106,0.00023402101606079638,96360.19545214766,,,
0.45,0.25908341191418266,0.17339998709479829,87.61349988308459,0.010167654725133373,-0.05786404278451213,-6.700180402678301e-05,,,,
0.46,0.24991682707923554,0.16556395739263594,87.78303630113001,0.014468018444267556,-0.06065394285704034,-0.001557168340164328,96351.1616035613,,,
0.47000000000000003,0.2340615261354319,0.16618220567791028,87.89414158535843,0.013483983671518658,-0.06708491566112765,-0.0015495340102224793,,,,
0.48,0.22616774635778497,0.1665825214358127,87.99181709392967,0.016039081415570658,-0.07001881422518305,-0.000317361007930393,96341.06320266661,,,
0.49,0.2080504586077453,0.15646142719732967,87.93579697011864,0.015179324194711147,-0.07726416855999682,0.0006485229731405935,,,,
0.5,0.19037049060444022,0.1536777364918457,87.86154472615401,0.015457598841002288,-0.08250527342333427,0.0012236786000290939,96331.93947423995,33.49861997675498,-99.33766712414096,434.36335265827967
0.51,0.16988916795024908,0.1402633584463343,88.07744282523137,0.01517740593991269,-0.08443747985664063,4.7456906705586264e-05,,,,
0.52,0.15047496830525703,0.13792270947337146,88.30321131646893,0.017645840166640288,-0.09129105525688616,-0.00020664340554555984,96320.56218905297,,,
0.53,0.12093127499465031,0.12580988994186487,88.5116910269231,0.018757467110931535,-0.09386503690889686,0.0011908100399443625,,,,
0.54,0.09855135435681,0.11656728159865863,88.71648190872196,0.018383321503491964,-0.09923211054632404,0.0004377111555688736,96310.06235156582,,,
0.55,0.06688078246461213,0.10699253426340731,88.95788039911352,0.02069319725732733,-0.1027627996850336,0.00022052184746556807,,,,
0.56,0.041038531418815825,0.09842745611066792,89.19948590418682,0.020145187900101287,-0.10747680879591422,0.001070573616483133,96299.50718509922,,,
0.5700000000000001,0.006498389448554376,0.08552941758776997,89.4047850736775,0.021970160188463338,-0.10976601303277177,-0.00025913948450371555,,,,
0.58,-0.027672963925984517,0.06873015145120727,89.60648075696712,0.023074138979447354,-0.1129777019384102,4.038420262301378e-05,96285.89351439328,,,
0.59,-0.07028592538864355,0.05723813311920578,89.76952821300642,0.02445078045851875,-0.1173516727262175,0.0007761376485272189,,,,
0.6,-0.10729013014208198,0.03885868347606892,89.93045419142705,0.02407596145101404,-0.12030890814723576,-0.000998964966587201,96273.47451572765,33.498625842799854,-99.3376122311016,425.9487321133989
0.61,-0.14950566810860583,0.01987712339970192,90.08036849398766,0.023797617136860353,-0.12255925821381891,0.0012221997180708012,,,,
0.62,-0.18759754790496885,0.0021076456551184985,90.22005308540675,0.02509915894763617,-0.1261202058056912,0.0018060790282487629,96260.11966391071,,,
0.63,-0.23650670046006247,-0.006446058636721496,90.40576854546892,0.02500155373869847,-0.1268850751768993,0.0015838985917120945,,,,
0.64,-0.2833598272336511,-0.03194580002411359,90.58743368050406,0.023980758981407044,-0.12941331459543956,-0.00094448585700676,96246.21893751835,,,
0.65,-0.33113575264669365,-0.04439831728244176,90.84425093444563,0.025115325135646512,-0.12910904908122053,-0.0010409344280482011,,,,
0.66,-0.37871780385420306,-0.06217877946416065,91.10665519021916,0.025585750148152994,-0.13159764289272718,0.0004956873281225691,96232.28709665082,,,
0.67,-0.4358987409091686,-0.09108212963122327,91.39574399631753,0.024581685580138,-0.13067134404458242,0.00010075598325939631,,,,
0.68,-0.4914389351422721,-0.11415397905994905,91.69058247984222,0.025071503607902498,-0.13151256851770302,-0.0011582656356552902,96218.80992088588,,,
0.6900000000000001,-0.5419125683975832,-0.13359864829576362,92.01858985196415,0.024545003638726595,-0.13240922039825273,-0.001211870235933787,,,,
0.7000000000000001,-0.5939092734598626,-0.15567200788846608,92.36394564110162,0.022646898978448696,-0.12943387424505448,-0.0001677716014723185,96204.4911983486,33.49864582207275,-99.33761759521393,444.0246188617931
0.71,-0.6516925031882005,-0.1769593422828563,92.72434326607701,0.025121199161834196,-0.1266713730105718,-0.0018238794627927957,,,,
0.72,-0.7041144542514169,-0.20242437955283052,93.09802339144404,0.022407579221113236,-0.12597345900459928,-0.00023380976949899555,96190.00800356304,,,
0.73,-0.7698655869399285,-0.2255224173930531,93.49433741592584,0.023259020680526554,-0.12384683511782409,0.0006780904821528607,,,,
0.74,-0.8211478490000537,-0.25245095092375014,93.892089191601,0.02230698335008434,-0.11999460479794817,-0.0006454911338401405,96173.43272314603,,,
0.75,-0.8808892183131212,-0.2717266072478613,94.30812379592273,0.021900597874468145,-0.1181261004204501,-0.001013031554080609,,,,
0.76,-0.9344289187506382,-0.2931556049391164,94.71945495687287,0.018498950725966502,-0.11169798464224207,-0.0002437063303424568,96155.85649400653,,,
0.77,-0.9847536776495044,-0.3159074973473511,95.13663591143742,0.02076623879546638,-0.10787707887168027,-0.0013162503688107325,,,,
0.78,-1.038808434197205,-0.3395942719055802,95.54900503162585,0.017503596100694723,-0.10259611512713036,-0.0008438167049762619,96140.04140438086,,,
0.79,-1.0902035594808164,-0.3596397584278388,95.9429361653302,0.018096635086013533,-0.09622506649635022,-0.002321913227352263,,,,
0.8,-1.1373275664832694,-0.385965204424129,96.3504400855013,0.017234797155241465,-0.09117278372316309,-0.0006060282810667853,96122.61951614567,33.49862406275871,-99.3376310226946,449.78826624830975
0.81,-1.1903944579197046,-0.40036314081712887,96.69366063855473,0.016819634580015036,-0.08573651595132704,-0.0001758711323394084,,,,
0.8200000000000001,-1.2310860158466523,-0.4165663568764597,97.0357661477715,0.01371529108795972,-0.07731304421092829,0.001194217122511835,96105.82343232897,,,
0.8300000000000001,-1.2705113267270158,-0.43070815445171445,97.3232090650472,0.009123256704938488,-0.07117776689312617,-0.0007005329282601427,,,,
0.84,-1.303117908050435,-0.44410110522257945,97.61914408234391,0.011821064252922732,-0.06338606197157344,-0.001195273166125787,96087.28849490387,,,
0.85,-1.3447139986497019,-0.46178879621716146,97.87033962983108,0.008610590099319686,-0.057330727892696484,-0.0005446830324972994,,,,
0.86,-1.3673457969466398,-0.47029410373365493,98.11236107040075,0.006408381832236669,-0.04660860445204088,-0.0017010428692283788,96067.25805141185,,,
0.87,-1.395396380475893,-0.48037087489624775,98.33130402436437,0.006217203865346125,-0.03775365008238526,-0.0013196850749911352,,,,
0.88,-1.4047857626115097,-0.4792639473277475,98.55044678803948,0.00391001130444102,-0.030631311508684794,-0.0017346783162019116,96047.85073293696,,,
0.89,-1.417766436931647,-0.48797233481087104,98.76944587258751,0.002470634605915937,-0.022967731210213362,0.0008174488588942602,,,,
0.9,-1.4352184604413707,-0.4827951711406268,98.98866974711116,0.0023493210915141666,-0.014912321649589265,-0.0005166188512684166,96029.4069548704,33.49860678381132,-99.3376427002748,463.56965820134104
0.91,-1.4359279972389853,-0.48427874482723154,99.22264658737073,-0.0026625988917301,-0.00514803662955084,-0.00044495708346190997,,,,
0.92,-1.4280489181493101,-0.47287201843820836,99.45786369175143,-0.0027252009400991917,0.0007142031615176062,3.411391438105059e-05,96008.7435959128,,,
0.93,-1.4212899860501822,-0.46863020516304116,99.66306841492555,-0.0035763417457040764,0.008860077387755733,-0.0007236546708566914,,,,
0.9400000000000001,-1.4121711452115895,-0.4591882329922761,99.88521761397003,-0.005453559220608141,0.017450177580576137,0.0010823193393342248,95988.62985121104,,,
0.9500000000000001,-1.38668001684096,-0.4428481947612471,100.07027647420882,-0.007977988648220814,0.024828170967880786,-0.00042747188209287966,,,,
0.96,-1.3620509640335,-0.4282484531339116,100.24912727679346,-0.008995116119811955,0.032365725067018875,-0.00022354553715679568,95965.48069716904,,,
0.97,-1.3255265209756055,-0.4102890631624214,100.39306865314471,-0.011153568650290251,0.040256604305393476,-0.0006253699236601339,,,,
0.98,-1.2954875685246365,-0.3857158410129702,100.53591185341548,-0.011507519400892013,0.04335433095775358,0.0007725506170421923,95944.90513186848,,,
0.99,-1.2483824650007445,-0.361918387385102,100.6165023871312,-0.011865115254634262,0.05127938057424059,0.0015142228444314245,,,,
1.0,-1.1997062735341644,-0.33513844610841315,100.68439760899415,-0.012818850719247512,0.054526415212048304,0.00027183827980533287,95923.76701388312,33.49866129364691,-99.33757762435162,462.3432149337592
1.01,-1.150095976628138,-0.3077249063783103,100.74152948201039,-0.01436843863722473,0.06079892347654245,0.001062157417840819,,,,
1.02,-1.0919377929509138,-0.2841498086448873,100.78897580002106,-0.01548792261267122,0.06374643948953654,-0.001429331235066837,95899.63909981881,,,
1.03,-1.0277483647535748,-0.23754412081299614,100.83142863224128,-0.015756418871748303,0.065110624860754,0.0003713676887356702,,,,
1.04,-0.9743102218958877,-0.20826560508306638,100.88377278355114,-0.015175648123717142,0.06829428974205899,-0.001624791911515717,95877.36991224106,,,
1.05,-0.905060929565833,-0.17684817082511936,100.94655544557538,-0.01708454881999465,0.06879894518039711,0.0015647512995687275,,,,
1.06,-0.834713397913349,-0.1390269711714312,101.01223940508025,-0.015636985754588852,0.0699135756147396,0.00051477836440878,95853.41648234695,,,
1.07,-0.7694505771238264,-0.09901992842767027,101.11391342424359,-0.01695944664169603,0.0691509258725133,-0.0022449616442987924,,,,
1.08,-0.7003872171898746,-0.0711113207525037,101.22429061600118,-0.014370470144321782,0.06678235712298962,0.000571189985316224,95828.9298193442,,,
1.09,-0.62944401581199,-0.03714476229717497,101.34217121382439,-0.014611866823409318,0.06458820960839132,0.001992579634997944,,,,
1.1,-0.5694639971087568,-0.002387855544340227,101.46690121289008,-0.01271874867069805,0.061625385322493724,0.0010272753697955909,95803.69563827448,33.49860596982239,-99.33759045017113,468.32609135292273
1.11,-0.5001051377970493,0.030234996044053164,101.57418475736749,-0.013881908283927392,0.05489668502598964,-0.0005771173658230424,,,,
1.12,-0.4393747029116548,0.06076588566103655,101.67422578085589,-0.011011626737994879,0.05265935045751633,0.0007474208191613661,95778.46703391075,,,
1.1300000000000001,-0.3891039005079627,0.08344250524493496,101.75989870947211,-0.011784028931810058,0.04796725132676559,0.0005225677001418238,,,,
1.1400000000000001,-0.34280289835504996,0.10763281909397243,101.84541655139017,-0.009753860007527069,0.04272189650989211,0.0003668302926993068,95752.82388166596,,,
1.1500000000000001,-0.2888658248548874,0.13016440971422305,101.92302852959962,-0.007901583093862472,0.03683155639277328,-7.886786314486505e-05,,,,
1.16,-0.25006513796751645,0.1481503324838252,101.98999334587614,-0.0077677774812897945,0.026463725829886497,0.00030994695396061343,95727.48644786708,,,
1.17,-0.22069375649439038,0.16149511603851055,102.07170830826719,-0.004641374753344275,0.020743976677555055,0.000850690018439319,,,,
1.18,-0.19618689301891576,0.1706415301623555,102.146927744723,-0.0037985431083586464,0.013894445889174593,0.00018729416000876076,95700.55005184762,,,
1.19,-0.18048336202001006,0.1754802907187064,102.23050709474107,-0.0028963452223489824,0.005799743108096966,0.001016653057181628,,,,
1.2,-0.17800515968482544,0.17295270697535695,102.313496918072,-0.0013898900021005285,-0.00437704027203468,0.0008439924333150785,95672.20775814012,33.49863045121223,-99.33759605043694,485.903643163379
1.21,-0.1765643535848121,0.1659077002773126,102.39947563618595,0.0010328887300623977,-0.011350961462245839,-0.0006238146669038642,,,,
1.22,-0.19287138162310175,0.15748316348741107,102.4960622571855,0.004325444677904519,-0.01755827526762872,-0.0007712832734472994,95645.96269885634,,,
1.23,-0.2078924634647712,0.14510998145892817,102.57010303548608,0.003620775798778903,-0.025361292466357592,0.0015753389529581164,,,,
1.24,-0.24467251213196298,0.13205824878120373,102.64235372330131,0.004778987278783648,-0.029852402573709715,0.0003911770311365414,95617.13329789035,,,
1.25,-0.27691699047403523,0.10397883017499347,102.70295689476286,0.00600288682425209,-0.03678371351006315,-0.0016418742684910603,,,,
1.26,-0.31645072231556043,0.07990042845387789,102.7643974152409,0.005567600806351524,-0.0452131013410348,-0.0004331330044459248,95589.36804693128,,,
1.27,-0.36751628616928056,0.05122532675444029,102.81822852897875,0.006554232446577006,-0.04766114604867753,0.00016584165712495126,,,,
1.28,-0.42818151931752646,0.019613108692746187,102.86154784238056,0.011282814811940042,-0.053413555310771924,-9.335305334846382e-05,95558.04183190524,,,
1.29,-0.4880572898033942,-0.019040803373183063,102.91430408840031,0.008305278797531101,-0.05571748192351106,6.676870236476194e-05,,,,
1.3,-0.5615038251298192,-0.050132635695589414,102.96423015595867,0.009273129927869207,-0.057489841332726555,-0.0019508707916861177,95529.17747801424,33.49865996278041,-99.33765536861755,496.0244600615559
1.31,-0.6276385333693466,-0.09030542152576368,103.0400835326169,0.010193480322968662,-0.05788123221599523,-0.0004952947433745192,,,,
1.32,-0.6944798584282664,-0.12543898076947685,103.11440449768622,0.010262281610527776,-0.056666919164027156,-0.00031543251860696205,95498.99582549251,,,
1.33,-0.7741036273784339,-0.16867626913456987,103.2163451878996,0.011084598980811263,-0.058559319784031574,-0.00017168235728016686,,,,
1.34,-0.8399934571561244,-0.20506816129231864,103.31379887806808,0.011981592409373276,-0.05553433217210473,0.0012744440076923737,95466.66552715986,,,
1.35,-0.9141857031444758,-0.23605504831936938,103.43029406367128,0.009719358342128242,-0.055545398620923205,-0.0010474670887098984,,,,
1.36,-0.9721662876874123,-0.26606061181313573,103.55048236973421,0.007632263916702341,-0.05078877226697597,-0.0007987768523558624,95437.2144126572,,,
1.37,-1.0412768473792162,-0.29697796646620084,103.6912343619215,0.00875391154316868,-0.04911350371450607,0.0018598220140410389,,,,
1.3800000000000001,-1.0863395001499945,-0.3175258208810003,103.82905971192896,0.007622444898271008,-0.041816537423794875,0.0004710126829173213,95404.4796732721,,,
1.3900000000000001,-1.1343031739468004,-0.3408154991801719,104.00671320781701,0.004334143426854753,-0.03936997748453953,0.0008410336574885814,,,,
1.4000000000000001,-1.17092945698557,-0.3573975058832375,104.18145048727979,0.003890879096196941,-0.03180385159315212,-0.0011371681511445433,95371.60994533273,33.49863182479232,-99.33763798142749,502.21491849973756
1.41,-1.1997474800213657,-0.36997720952923047,104.39932713705264,0.002901739589060861,-0.025550259501699184,0.0009139422685465049,,,,
1.42,-1.2212031732090802,-0.37503365393668564,104.61144894935147,0.0008789689544029893,-0.018606188497939293,0.0009428808016515327,95339.28969163015,,,
1.43,-1.2297725946821905,-0.3734808238202732,104.78260187091583,0.0009916413141690817,-0.012916497547735243,0.0006465085023976399,,,,
1.44,-1.2275036629954763,-0.36499545716748727,104.93237318408424,-0.0011649868964023914,-0.007072357189116042,0.0003273656547004072,95306.40925696433,,,
1.45,-1.2196026130427238,-0.3608394953658788,105.0151093464814,-0.0022164414936273417,-0.0016185907340194733,0.0008882125369480303,,,,
1.46,-1.1939589542268227,-0.34328429509230296,105.08346463600442,-0.0021125173752343804,0.002414465805099968,0.0006747533349328305,95270.34098578604,,,
1.47,-1.1635302255892153,-0.3240951613443167,105.05857056516794,-0.002886920012316708,0.009959315753493604,0.0008779680270342848,,,,
1.48,-1.127036085766009,-0.29948543464409944,105.01991952290832,-0.004374071185518601,0.01228736487116561,0.0005931571427383724,95237.0983202704,,,
1.49,-1.0864160693340952,-0.2662080414308062,104.9280059634137,-0.005695779230732735,0.017149626787580426,0.0006958062740369921,,,,
1.5,-1.0346705003004624,-0.2362581007847857,104.82907009394333,-0.006024359840079064,0.019608487632297233,-0.0019899536474286814,95201.18101193859,33.49857873759808,-99.33767201824816,524.2895987160448
1.51,-0.9784584406739312,-0.20564033166991147,104.75879335483269,-0.0071177584429412055,0.021308027431348797,0.00014416888538323227,,,,
1.52,-0.9178717886230082,-0.1725010742240253,104.70071478541799,-0.00539033460900926,0.02493570809650531,-0.0006761706526670015,95166.41807219181,,,
1.53,-0.8568110937298751,-0.1369526493871525,104.67913423060658,-0.006950641112184582,0.022770338506568857,0.001076864783420503,,,,
1.54,-0.7996273266144053,-0.10292941520671622,104.66782196913577,-0.006770643023583143,0.022250405775839352,-0.0012641344069243652,95130.82482094425,,,
1.55,-0.738539554812719,-0.07000044428778016,104.66759783493825,-0.007551123404880465,0.023215246978494416,0.00011090256549161373,,,,
1.56,-0.6900823126969484,-0.045812024743424024,104.67119408793467,-0.005634740120595364,0.01846103503665449,-0.0006806698345298472,95093.63126965468,,,
1.57,-0.6369355592523839,-0.013177025581341546,104.63021590652697,-0.0045173184329425995,0.016558712270097153,-0.0009958902114947036,,,,
1.58,-0.5928704158681075,0.001815443969068019,104.58888319420646,-0.0038446283259849874,0.012725906771960676,0.0004439787096956155,95056.78230911733,,,
1.59,-0.5614780655350403,0.025491983130090295,104.50076497169698,-0.0009672522370663956,0.008096829619827942,0.00018189295311497186,,,,
1.6,-0.5392713603071609,0.037366997721735025,104.40092293342518,-0.0022371764648032246,0.004383575389574004,-0.0018793902652255664,95019.19340484228,33.498631505646,-99.33770460177652,533.4457760274101
1.61,-0.5200470458650781,0.035328250899959744,104.24651141486684,-0.0016066149839412784,-0.0004231020163021079,-0.0013398238052214522,,,,
1.62,-0.5134409774678751,0.039972854749685094,104.08552173079457,0.0009325918341130933,-0.005604085247423063,0.0015360333450257038,94980.99156917435,,,
1.6300000000000001,-0.5241808310934851,0.030138708088252298,103.88102287856215,0.0006547031982994354,-0.007211732590688,-0.0008921995984538535,,,,
1.6400000000000001,-0.5263556385491726,0.023778458815993914,103.68975380166236,0.0013433010557949547,-0.012412598715309147,0.0015075021131101618,94942.96114125353,,,
1.6500000000000001,-0.5596160305900795,0.011907638850681902,103.49430610732124,0.0009115622632746262,-0.01728015205264221,0.0006316093965032642,,,,
1.6600000000000001,-0.5829270348227024,-0.01212358030997002,103.30085175321437,0.003378875982557649,-0.020326414238979684,-0.00030828388595493546,94902.86139218106,,,
1.67,-0.6278220536330537,-0.03495318664731895,103.1276635362669,0.0012664357825811295,-0.024515293380352264,0.0012599430142378252,,,,
1.68,-0.6735062084858783,-0.055912315059288856,102.95188169413285,0.004412659500403163,-0.02677826021362202,-0.001427011149522563,94862.72574939826,,,
1.69,-0.7111998370782914,-0.08724209360768194,102.78523938196915,0.004992001919345733,-0.027232815880067065,0.0019343964544363643,,,,
1.7,-0.7673465720320196,-0.11833113019361557,102.62541078236137,0.004176360796161078,-0.028625331193361317,0.00014890156178661707,94822.64438119488,33.49865450954935,-99.33766586824481,568.5118012234519
1.71,-0.820778813119342,-0.14068267292507824,102.45390210249938,0.004184173462119752,-0.027507289676015522,0.00027150732318406527,,,,
1.72,-0.8686697362508901,-0.16572037416812999,102.2956710494278,0.0027523536418036687,-0.028977348582097787,0.0002350156901349176,94782.7568012194,,,
1.73,-0.9201409238328273,-0.18962368983869235,102.13844179234607,0.003028464328828429,-0.025661451116079474,-0.002127361054669963,,,,
1.74,-0.9586967079257626,-0.216410926929536,101.98206512352972,0.0034953653074668847,-0.02398460402359515,-0.0011078638592372674,94741.73411327612,,,
1.75,-0.993672498714898,-0.23376592511610725,101.84168528654429,0.0016600329666604493,-0.022160687549461017,-0.001179190106800135,,,,
1.76,-1.0239862826347648,-0.24600012233509927,101.70022634700382,0.0006339775453975632,-0.01952505738872841,-0.001323289016738123,94699.99142418368,,,
1.77,-1.042084042673809,-0.2554131488269752,101.58333610631297,0.0015873205399341236,-0.016126571830600674,-0.0006327809569674622,,,,
1.78,-1.0614970281205052,-0.25693995297451355,101.47079137863582,0.0005837282069771643,-0.015725004884011608,0.00014991155605672976,94655.99804767949,,,
1.79,-1.0612685762678484,-0.2552772420421549,101.36910847254791,-0.0011592348288181325,-0.010436291117334962,-0.0012656460836575113,,,,
1.8,-1.0588195694414946,-0.24411910161785552,101.27792883656662,-0.0004352750667308001,-0.005536747170158749,0.0008543877194694827,94616.04772487843,33.49863599970738,-99.33758824043151,566.4142420168919
1.81,-1.041293667789599,-0.23718328846771156,101.16458680994342,-0.0004944314224473623,-0.004158595604739522,-0.0014596682095737233,,,,
1.82,-1.0207821516865032,-0.2229250916347463,101.06014280204028,-0.0005540129002950358,-0.0007882484189971042,0.0007034785431425801,94570.89994652364,,,
1.83,-0.9947546325122767,-0.20301547911376022,100.90467283669057,-0.001529932073776878,0.001989539863382471,0.0021152862181256405,,,,
1.84,-0.9639031000419536,-0.18616667335002823,100.74394490059863,-0.001895824501192967,0.001788107116015101,0.0009958044753412096,94528.41293667028,,,
1.85,-0.9254591760304064,-0.16268759527802973,100.51648808881288,-0.0032628661692536798,0.0027555482852470972,0.0014068310426666923,,,,
1.86,-0.891554207230112,-0.14058809653688298,100.28456799652909,-0.0015798094792916413,0.0036618918635562556,0.00017454848195014175,94483.91721866588,,,
1.87,-0.8528779401474413,-0.12227756428761016,99.9973626958655,-0.0011117972179740868,0.0036513800673970646,-0.0001390683244040763,,,,
1.8800000000000001,-0.8166081701022269,-0.10363784047608693,99.70344307918245,-0.0013727960840087116,0.0019126884606259454,-0.0027278440915159676,94440.26233459229,,,
1.8900000000000001,-0.7827631029799236,-0.08507111123982648,99.37395531628371,-0.0017026642694312935,0.00395991602734859,0.0017238425678511027,,,,
1.9000000000000001,-0.7666382704226833,-0.06898690282451483,99.05002202388734,-0.00025320076769816706,0.0010987688982245162,-0.0003651583465650077,94394.20138532754,33.49864329256987,-99.33766747913043,600.1189341132385
1.9100000000000001,-0.7437736867538152,-0.05862565017288645,98.70018957519055,0.0001857395336948549,-0.00047231250480175304,-0.0004590972567048393,,,,
1.92,-0.731683552009412,-0.05439021638901118,98.35136254877831,-0.0010440453739379008,-0.004234446502168117,0.0004226841605155576,94348.752590583,,,
1.93,-0.7221046681388913,-0.0493606013296214,98.02901449019656,-0.000314502555108974,-0.004777441182337861,-0.00014850247288808685,,,,
1.94,-0.7236444811921522,-0.05468764131428199,97.69563557638514,0.0018570857768262464,-0.0073083676761939885,0.0003129861303817025,94302.90916282988,,,
1.95,-0.737904551118895,-0.06313959337877183,97.3823059768662,0.00022785251124534308,-0.007959861861445105,0.0004648280368179081,,,,
1.96,-0.7482298672198131,-0.0746550151726949,97.05841002342557,-0.00027391083581832973,-0.012549952082888298,-0.0013739449493011696,94256.59583931653,,,
1.97,-0.7808399920706337,-0.08450361645297431,96.70634585549209,4.439162913443635e-05,-0.013402252298692378,-0.0007255171681252938,,,,
1.98,-0.788028399664904,-0.09812768040926464,96.3457243177122,0.00203998130865021,-0.014724420344122103,-7.203727804310921e-05,94209.70693778408,,,
1.99,-0.8240061875255769,-0.11048291122559883,95.96345400541479,0.00019257255092811434,-0.015714218423859762,0.00022126507830449538,,,,
2.0,-0.8592717539290862,-0.12983169220044793,95.58419705850649,-0.0011404060469213243,-0.01375070192677664,0.0021984713967234805,94160.40681429565,33.49863921764142,-99.33768568082839,618.3045277176733
2.0100000000000002,-0.8842766623174277,-0.1403153748589456,95.18031534526439,0.0018745191040480933,-0.015795756504576628,-5.14706997612745e-05,,,,
2.02,-0.9134753496256633,-0.15295465535534156,94.78280527529421,0.0008870479241154753,-0.015058131264122391,0.0009573194651382616,94113.9992116577,,,
2.0300000000000002,-0.938111841794463,-0.16873600409184744,94.33917320781158,0.0005755885650490066,-0.011190193330042217,0.0006821583117050053,,,,
2.04,-0.9548367846569613,-0.18302758635645658,93.90903769715459,-0.0005298298037544146,-0.011359835715520452,-0.00038930597894013756,94064.14860236023,,,
2.05,-0.9743640170501437,-0.18291445835036452,93.38305081481462,0.0006771468971255603,-0.012322266717699624,-0.0011086574005037724,,,,
2.06,-0.9803875835300543,-0.1916424563431153,92.84357115885295,0.0003115198713025563,-0.010066271845063958,7.517938303092469e-05,94016.65405377325,,,
2.07,-0.977449861597327,-0.1912528257103836,92.20665258781831,-0.0014966059537973152,-0.010739513060813928,-0.00033622393623115144,,,,
2.08,-0.9775286675797308,-0.18503958821602376,91.57225759515241,-0.0015482488558141313,-0.006230030296094324,0.00022619837588440053,93966.64333847036,,,
2.09,-0.971621777127924,-0.17979465951761167,90.87230462011789,-0.0010004309690972582,-0.006106904342000892,-0.001350500359986075,,,,
2.1,-0.9585518522897998,-0.17248345077433555,90.16233995955278,-0.0002591063476366466,-0.004231038527056884,-0.00031342680366552123,93918.02538347927,33.49862642305084,-99.33768976413519,632.4585591999656
2.11,-0.9384343804529363,-0.1574590849564978,89.44465369767893,3.133980990937862e-05,-0.0036905803197736344,-0.00013489674474613056,,,,
2.12,-0.9297689498960025,-0.14669327951727226,88.70447794669369,-0.0005611014642302808,-0.004823042355902789,-0.0011017395976281605,93867.5916452798,,,
2.13,-0.9102517853353574,-0.13616111340442807,87.99526873974351,-0.0005066892164833497,-0.004773788859326482,0.0014740770004149154,,,,
2.14,-0.8903545271067205,-0.12790985674403238,87.26962191616732,-0.0008003224496593168,-0.004913428844351764,-0.00044783044420446274,93816.37251361216,,,
2.15,-0.874017947828344,-0.11659651356538259,86.61709938113218,-5.8063826800773804e-05,-0.002127003682301471,-0.0013064445965420537,,,,
2.16,-0.8595746144732843,-0.10830359901313064,85.97247422140018,-0.0015756763742954308,-0.0038934091494570657,-0.0013922391431080254,93765.60698079098,,,
2.17,-0.8471378716167602,-0.10270314777013474,85.35089176246063,-0.0017826314622125384,-0.003385886406021745,-0.0002192628909143769,,,,
2.18,-0.8454893385052765,-0.10556054612558642,84.72815989078724,-0.000490756239776245,-0.005467996309994791,-0.0009990889375660573,93713.36854508254,,,
2.19,-0.841371156023981,-0.0954672010905343,84.12426076419378,-0.00027161444556239806,-0.005960302433071934,-0.00022725604640765613,,,,
2.2,-0.8434217517331152,-0.10213278023586629,83.50811035884597,-0.0013642066940333368,-0.008106158873738716,-0.00031222157843736474,93663.55543221596,33.49862784595844,-99.33769418722143,654.685238353232
2.21,-0.8590771231704663,-0.10797576344854568,82.91927288296793,0.00033021569192618185,-0.008626985619597224,0.0022001901296730877,,,,
2.22,-0.8673871158233899,-0.10947063475569399,82.33304949714358,0.002016801044814814,-0.009670716644438542,0.00012454889825279228,93610.03339669759,,,
2.23,-0.8729548211765806,-0.12020066224179207,81.75500433371293,0.0014280706052033005,-0.010980491635327737,0.0006237800357530173,,,,
2.24,-0.8945931988539964,-0.12775461347354655,81.17685513530114,0.0011706965697110558,-0.010867789047005064,-0.0014510388630063593,93557.68469526868,,,
2.25,-0.9104945023260426,-0.1321047268052841,80.61858916309,-0.001061641287321927,-0.010802063462284997,-0.0008192941958240556,,,,
2.2600000000000002,-0.9229817094829198,-0.13525502837931405,80.0573877991952,-0.0010315165130314933,-0.0089754562794753,0.0011873544587933588,93503.67331715995,,,
2.27,-0.93893928127314,-0.144864595949398,79.5587287208212,0.0012852591263916944,-0.010511942914293125,7.430304550220005e-05,,,,
2.2800000000000002,-0.9478161316472808,-0.15273125115595929,79.05858268359012,0.002549940775170111,-0.009440735614626078,0.002478853061588135,93451.59599627298,,,
2.29,-0.9555631883642078,-0.15462120938245538,78.62428624915638,-0.0007398751259101607,-0.008934234927173,0.0003481907209762522,,,,
2.3000000000000003,-0.9521952962020831,-0.15177886445952132,78.1743076064359,0.0010873163845455953,-0.007877520096619042,0.0006533823156454673,93397.39318323381,33.4986883570811,-99.3376996854334,677.6622570965202
2.31,-0.9560783726417759,-0.15472736468610282,77.68769238540902,-0.0008667490436174757,-0.007861258885232009,0.0014067339515666513,,,,
2.32,-0.9555061538975478,-0.15875425042632188,77.1987898293867,0.0007303820862812233,-0.007384022854010611,0.0011269345219976387,93342.5175120496,,,
2.33,-0.957297509452916,-0.15393401447812485,76.56599282999491,0.0005036728268766103,-0.0067795960390399845,2.6745389470910403e-05,,,,
2.34,-0.9512957095500206,-0.14786269174224553,75.93738773751205,-0.0008114114265203817,-0.0054567512705012665,8.143489730293911e-05,93288.64969759987,,,
2.35,-0.9393592284293296,-0.14370494400761216,75.29307326633275,-0.0008979975867516139,-0.009115073339486046,0.0005429470628686882,,,,
2.36,-0.934580325211329,-0.13775955382152835,74.6496787800806,-0.0015227161660722288,-0.006466520872215636,-0.0002600976767618655,93232.38303877304,,,
2.37,-0.9265075216942975,-0.12954264033563256,75.77643227391957,-0.0009351998497256042,-0.00827734487868283,-0.0020967887013965867,,,,
2.38,-0.9188066606087043,-0.12811033777541814,77.05126456095897,-0.00037985352214716327,-0.007886579271455037,0.00042566840558099195,93177.22988427576,,,
2.39,-0.9164689897536188,-0.12202665894385728,76.94977575068677,-0.00022358100685704568,-0.00581138681785186,0.0001525350446727182,,,,
2.4,-0.9131563171734778,-0.12081110602700766,76.73332202803829,0.0002771179639045727,-0.007687502973255616,0.00018644042845585433,93121.55816726483,33.498609842927245,-99.33765352821182,708.1681969486025
2.41,-0.9166135890282402,-0.12229067408872012,73.04240094499221,-0.00031183851493920645,-0.00837971866191957,-8.524359905042664e-05,,,,
2.42,-0.915700352447191,-0.12424207295982988,69.05705179485564,-0.001377197202366781,-0.006381864253261844,-0.0004019295602760435,93067.03635990694,,,
2.43,-0.9175157122362682,-0.12291334031996465,64.3235066372963,-0.00017798065335991085,-0.008877438748428505,-0.0006028618068521288,,,,
2.44,-0.9179594687258986,-0.1261045917200336,59.52736402146669,-0.0004960607026475439,-0.007834279321653705,0.0003364820114103604,93010.02459310144,,,
2.45,-0.9323302768116244,-0.1255998518254582,52.77988885639835,-0.0011034560498463855,-0.008409946031412253,0.0013603543546312354,,,,
2.46,-0.9547954917986554,-0.12779754411192953,45.86756676216157,0.00018709858656083865,-0.009577756877892096,-0.0005353045927944199,92955.12323432947,,,
2.47,-0.9595412894009305,-0.12464200961866242,40.421431868199676,0.0014776806594569859,-0.008443665833086507,7.045497123425795e-06,,,,
2.48,-0.9738342185166174,-0.13401151943844955,35.08539071301345,0.0020625102975023544,-0.00865011592634239,-0.0005049186127087206,92897.9788887738,,,
2.49,-0.9839940317220599,-0.12928090782041168,33.283258295393416,0.000880993288261723,-0.0057566097079177255,-0.001614286970981891,,,,
2.5,-0.9904720020279799,-0.13486585358510278,31.766467751245653,-0.0003528523851240574,-0.00873847390520966,3.4213451807905696e-05,92840.49646455045,33.49864886658572,-99.33764365746052,733.1351517269995
2.5100000000000002,-0.9913614802298238,-0.14510051172708843,31.10239547801159,0.0021070253216796883,-0.008163950123301494,-0.0006751319181699829,,,,
2.52,-0.9913707971880147,-0.13516815649190733,30.50582945435208,0.000576736060686803,-0.007959616130836577,-1.3592147744722236e-05,92783.09193967163,,,
2.5300000000000002,-0.9828721472962966,-0.13525131188341527,30.082764677983956,0.0008550378373746996,-0.006354319306357477,0.001294399753301542,,,,
2.54,-0.9779341615312231,-0.13872398507517217,29.683889170896663,0.0012527264861023494,-0.004908838953565441,-0.00025978142162094947,92726.8007289304,,,
2.5500000000000003,-0.9684724332233557,-0.13680987395077313,29.273649275460564,0.0019471003863041,-0.0054049309778824725,0.001856562763688795,,,,
2.56,-0.9593770178134855,-0.13577134781382036,28.874086184970633,0.0019080778617789284,-0.0057761818023414025,0.0021058090238898334,92669.96743995622,,,
2.57,-0.952632812357263,-0.13860899480431488,28.59808376876496,-0.000319548166194018,-0.004554170293097971,-0.00017297881230677134,,,,
2.58,-0.9471126356910231,-0.13352078398923625,28.343489470256927,0.0012261238742583376,-0.003020932397996652,9.44633636041221e-05,92610.85738665782,,,
2.59,-0.9468926553931026,-0.13210410493921937,27.972771596069197,0.0016997525223675647,-0.006635362278751163,-0.0011718844979867334,,,,
2.6,-0.9436996000566208,-0.13094444455546886,27.592116128957997,0.001980205595366772,-0.006394445920459476,-0.0007709414660379149,92553.4550069428,33.498690211502115,-99.33772025173279,766.3775440924333
2.61,-0.942152396480285,-0.1289369239054347,27.183327403766608,0.0016493188920110144,-0.005448074705776243,-0.0010253079091487878,,,,
2.62,-0.9480998179539837,-0.12902431008669576,25.337241991893233,-0.0003659551558849702,-0.0062267741590019045,0.001039812357154922,92495.64803618472,,,
2.63,-0.9508279253415693,-0.12830967648834793,26.39252961956013,0.0006780535619225526,-0.007930997120006646,-0.0003316075151903212,,,,
2.64,-0.9592877293309037,-0.12921307037735486,26.007852385140577,0.00031615385602549957,-0.00690903585981932,0.0008272215482354625,92438.4897378254,,,
2.65,-0.9602264791937796,-0.13244377969641744,25.633705445485617,0.0001665853982243819,-0.007080060048991732,-8.887996973006971e-05,,,,
2.66,-0.9734188502247623,-0.12791021759486867,25.25450841623754,0.00023113772047537475,-0.007589771697548538,-0.0012192457554579229,92379.55740690223,,,
2.67,-0.9754569989841076,-0.1318480887636728,24.926048787291816,0.0005026313067875085,-0.007229547321772572,-0.0007770682469673754,,,,
2.68,-0.978822283874565,-0.1328616416842884,24.599264330848793,0.0007936579788696793,-0.008558573247101934,0.0008631179743695616,92322.76299437173,,,
2.69,-0.9871851253757088,-0.13754404121495345,24.303436595400385,0.00028771539488108255,-0.007083612993018098,-0.0011228211896098402,,,,
2.7,-0.9873263457631853,-0.13950740022100935,24.008992325174752,0.00017235989325495055,-0.006079188619299143,-0.00021723646490679052,92262.3884257516,33.49866969284666,-99.3376621748438,779.5964193977178
2.71,-0.9903873964374764,-0.1376205244934679,23.71484650253557,-0.0006893028284493036,-0.007588558009613413,0.0003775031666714368,,,,
2.72,-0.9880977543835335,-0.1376455543381865,23.42127889119878,0.001806496815705885,-0.006682613580498498,-0.0013228722845368256,92206.74427962108,,,
2.73,-0.9925461043622027,-0.1396886792258212,23.121803702173416,0.001010969926706077,-0.007525897803708987,0.00025566005224880863,,,,
2.74,-0.9886658306917678,-0.13762714208916996,22.83356236856604,-0.0016103572234414077,-0.00787384442346619,0.00030600802605196167,92147.00452649822,,,
2.75,-0.9824565101980018,-0.13681741690608792,22.54671056771108,0.00212376900936055,-0.007892451048960813,3.441997888740693e-05,,,,
2.7600000000000002,-0.9844819454071141,-0.13758360067558487,22.258264218887145,0.0004415699539775061,-0.005811715887297662,-0.0010161457249175184,92087.7235775697,,,
2.77,-0.9836519501301233,-0.12861327407574924,21.96836267911169,-0.001840674687827329,-0.006794125842269465,-0.0004400733200452952,,,,
2.7800000000000002,-0.988252321073721,-0.13686139961040883,21.682526819411418,0.0008675382756172358,-0.005904222213200839,-0.00039802566873042866,92028.9380705455,,,
2.79,-0.980574835887887,-0.13628075776721899,21.41800059297699,-0.0009724071646419257,-0.007051084051534353,0.0012538729899902164,,,,
2.8000000000000003,-0.9844502043542452,-0.13682291350392273,21.16059296852475,-0.0014660785656532556,-0.008260976502406082,-0.0007475940787783582,91969.52324946786,33.498670730191385,-99.33774738704892,809.890876560099
2.81,-0.9810085009157957,-0.12932001140395308,20.924746687263738,0.0009818792652176377,-0.005777272410083618,-0.0012399808135349893,,,,
2.82,-0.9911199677063065,-0.13187098037331182,20.68311724169813,-6.41869731249833e-06,-0.006721034774104254,-0.0010600560210483028,91911.64729973603,,,
2.83,-0.985624225111007,-0.13907269693462823,20.451057494574886,0.0015375659605148147,-0.007325617695627316,-0.00032047471428281097,,,,
2.84,-0.992456792003167,-0.13711929180394053,20.20995060736537,0.001206907017722893,-0.005750362494446979,-0.001015610285514105,91851.8705492253,,,
2.85,-0.9939384217430817,-0.137435966785793,20.003044532825744,-0.0003573405593037281,-0.007511412360476964,-0.001531234254203266,,,,
2.86,-1.000891189897986,-0.13855347713480357,19.79278326475669,0.0003224032487165903,-0.0064704591068316004,-0.0007986119318822767,91792.98063049988,,,
2.87,-1.0016368227334156,-0.1373450962015443,19.58280847311194,0.00111809154497412,-0.008619297384502188,-0.0012230607257034004,,,,
2.88,-1.00629742247501,-0.1340359157465496,19.376118195115822,-0.0010413657804471844,-0.0067228147971120185,0.0006642991193610394,91734.73813243878,,,
2.89,-0.9986368796695491,-0.13787579025811428,19.115234890141508,0.0007609443615048607,-0.006768813555934094,0.00022152344595571832,,,,
2.9,-1.0047996482271235,-0.13518647249701174,18.853034117273012,0.00015102284959997957,-0.004456193284113107,-0.001689945045278334,91675.29219835882,33.49865956776761,-99.33770138849353,829.7773805255325
2.91,-1.0073060247425993,-0.1350337047137082,18.586647177625196,-0.00020578487779611854,-0.006466589029594638,0.000984761862399663,,,,
2.92,-1.011736478809638,-0.13755083884966032,18.327966280407257,0.001311401161955311,-0.006634475386147301,-0.0014404474986432804,91615.44096005727,,,
2.93,-1.0048976021849518,-0.13697224276552267,18.037966909490184,0.0016661459065000067,-0.005721982339219418,0.00031495793543037247,,,,
2.94,-1.0079751010206814,-0.14409998721479372,17.748249102620864,0.001399094674479516,-0.006725122632206454,-0.0008882965741350418,91554.91163297325,,,
2.95,-1.0023540756748297,-0.1397775321386686,17.434008151785356,0.0002389712300728167,-0.00761622497704564,-7.960587441178614e-05,,,,
2.96,-1.012938259288305,-0.1357312574381412,17.112384874627697,0.0009208600472905773,-0.006487525212406091,-0.0010768627210331844,91495.43839385333,,,
2.97,-1.0094317074817132,-0.13776941913295637,16.795745058090215,0.0019048388323101946,-0.006478644469418833,0.0001511031406780568,,,,
2.98,-1.0081946065720027,-0.14004689722693364,16.47663212696196,-0.00032441383984744003,-0.007318545014663567,-0.0013791708193136591,91435.11154604745,,,
2.99,-1.0093873270861937,-0.13707381485728254,16.139597307856587,-0.0003897929512199027,-0.007512438210571561,0.0008434955353879055,,,,
3.0,-1.008759146146657,-0.13867985656659507,15.807880163520696,-0.00015846174698002432,-0.007954140341008673,-7.965059697864245e-05,91377.42243580054,33.49861628781242,-99.33777293343837,864.0409046333853
3.0100000000000002,-1.01796468255012,-0.13626337564702595,15.475953874117236,5.7013173400779485e-05,-0.007849689562683311,-0.0015382215321517033,,,,
3.02,-1.0152986987153134,-0.1360065140847234,15.14250075850581,-0.0012281592470842638,-0.006378936507433707,-0.001674125682107082,91317.57485321241,,,
3.0300000000000002,-1.0131816962401048,-0.1382503471685747,14.819084099336182,0.00025961700716897566,-0.0063841951380124926,0.00038573350064535696,,,,
3.04,-1.0190839484426464,-0.13943060546588829,14.499882233345025,-0.0001988531338380996,-0.004999206944684465,0.0003176469195806805,91255.4655693259,,,
3.0500000000000003,-1.0240332666665948,-0.1359015489805971,14.20672926961786,0.0016695528750074286,-0.006010794289229904,0.001066759657685119,,,,
3.06,-1.026612348532224,-0.13540604569130452,13.901670395434264,-0.0008214858247715125,-0.007121535465351416,-0.0001787229440227902,91195.6337878168,,,
3.0700000000000003,-1.0220062733823883,-0.13889881280107547,13.603363302978858,-0.00014775131917211365,-0.006493118941727541,0.0013572127932669903,,,,
3.08,-1.031000985700604,-0.13607771202801128,13.311564682619098,0.00025003059594928936,-0.007828885800602191,-0.0010307599504785752,91136.91764387862,,,
3.09,-1.026875405569257,-0.14121128884263018,13.017659039665796,-0.00018156231231405344,-0.008236773848304168,-0.0005699163597936612,,,,
3.1,-1.0283081876405127,-0.14140015149696844,12.718900319499944,0.0009434214067059577,-0.007242798754783333,-0.0009695504051361425,91077.35413506704,33.49866955805893,-99.33776103352561,882.9577985468087
3.11,-1.0322284117030225,-0.14059624911807075,12.475562787365753,0.0022404260412811003,-0.006643815244503777,0.0006083383782447603,,,,
3.12,-1.0279934575230876,-0.1396737970401943,12.228929537265943,-0.00034595133158989394,-0.005415469603656311,0.00036476292243302057,91016.95049081043,,,
3.13,-1.033452564818572,-0.1471036632209647,12.018027565629895,0.0005357277731712205,-0.009287297275819121,0.0024808617257388046,,,,
3.14,-1.0347009573557666,-0.14247544857971892,11.808514843099669,-0.00037890058888059646,-0.006191201145195265,-0.002177296945460997,90956.69028922696,,,
3.15,-1.033756608450441,-0.1371441145438993,11.618614300889899,-0.00033736117978825633,-0.006629322102512009,-0.0014797350131358236,,,,
3.16,-1.039770928772387,-0.13687689704948605,11.439900694273955,-0.0004693439293160189,-0.007157746432242847,-0.00037147058457059657,90895.78598184792,,,
3.17,-1.0386548542334606,-0.14193192953899283,11.253110985486412,-9.318725527648582e-05,-0.008195503194440392,-0.0007647347534274682,,,,
3.18,-1.0367602808073817,-0.14013505394237483,11.061966849568408,0.0016591582941000078,-0.005931453569043457,-0.0018293893798068813,90836.96701894634,,,
3.19,-1.0389290513892555,-0.14268994070146368,10.842152990088,0.0009869938294683007,-0.006885099236421758,0.0014896438951147997,,,,
3.2,-1.0437373499984073,-0.13971646008781488,10.617434957449502,0.0008908059956086237,-0.005859541991796507,-0.0010291740983317344,90775.6683782336,33.49872753072259,-99.33782412601192,925.6521944410465
3.21,-1.035354651456607,-0.14132450531041146,10.341303517215215,0.0014476159303665984,-0.00651242565742015,-0.0006133720423559677,,,,
3.22,-1.0356354632256322,-0.14280870367998208,10.06806205004904,0.00013820631386013096,-0.0050292618329962225,0.0013626605096512434,90714.95729535457,,,
3.23,-1.0368793015260034,-0.13851533960259133,9.686495706069206,0.0028716676007075814,-0.007215882356599761,0.0010129586796552585,,,,
3.24,-1.0469822612837014,-0.13747737462850487,9.307147391974196,-0.00021325612407624927,-0.007734427469305398,-0.00016274503076610307,90655.19096264424,,,
3.25,-1.0427457850322759,-0.14598963051187797,8.805471198554738,6.065822366731004e-05,-0.0057665201786865575,-0.0006179844903066218,,,,
3.2600000000000002,-1.0480737662544541,-0.13902441316097636,8.291262864136842,0.0010483660811520178,-0.006746639764620538,-0.002191367529742478,90595.38785721474,,,
3.27,-1.0519460086904289,-0.13844474123392664,7.745836591185052,0.0014963862609409212,-0.007077131243652608,-0.0009862746334731707,,,,
3.2800000000000002,-1.0483139315718428,-0.13971994575994734,7.1962918504523,-0.0009127152829261086,-0.005078228549031156,0.0008043595039495119,90533.68898621814,,,
3.29,-1.0538012668756216,-0.14144938523374526,6.607932080108513,2.0167117898068775e-05,-0.007644814915962561,-0.0002413804056819925,,,,
3.3000000000000003,-1.0488300415635008,-0.1420546961993053,6.00766347017279,-5.370387663920079e-05,-0.006730321880935488,0.00020316401633687904,90473.76486976899,33.498696930651924,-99.33776059882778,943.7433806032564
3.31,-1.0543514570234713,-0.13726061561315742,5.39713632157436,0.0011437612909930357,-0.0053222685436225955,-0.001470545967238496,,,,
3.3200000000000003,-1.0591279646389664,-0.14023188058665972,4.776710023139055,-0.0006632733594142525,-0.0065256709679593775,7.392591289380106e-05,90412.84958663327,,,
3.33,-1.0609481388787994,-0.13904546178817226,4.0974962211950805,-0.0005769953396153848,-0.006173218384652371,-0.001068878701073757,,,,
3.34,-1.0546568962498524,-0.14068004175699292,3.409652831742509,0.0011103854575543804,-0.007671009449562571,-0.0002736263018303911,90351.84050970196,,,
3.35,-1.0597447607622217,-0.14554108519814257,2.5114194205637803,0.0012373534392137466,-0.005384507642572623,-0.0007068802120350133,,,,
3.36,-1.0560140085887322,-0.14606810197206285,1.5982906257150702,0.0009852545719733778,-0.00674072640652555,-0.0013650141731581843,90292.23165816373,,,
3.37,-1.0590507025038463,-0.13589281371634954,0.4537490036885438,-0.0014928635703489077,-0.006361942630681658,0.0005029072028957757,,,,
3.38,-1.0616169187910094,-0.14601893996252258,-0.7120859410203404,0.0004751787782633586,-0.007086640336327663,0.002142676341830647,90231.85111841156,,,
3.39,-1.0595356188161495,-0.13736810204994104,-2.11865415005502,0.00022791579853406556,-0.008517639404219263,-0.001000756709222296,,,,
3.4,-1.0696200231039845,-0.15054221761707637,-3.5278831225831175,-0.0006366025840174016,-0.006810255833062783,0.0017250897601568897,90170.56186078924,33.49863220477963,-99.3378415908515,965.9320231686222
3.41,-1.060941263425998,-0.13741495642810028,-5.044298094195848,7.79950414449978e-05,-0.005430303040199591,0.00039808877149281375,,,,
3.42,-1.0691228211542145,-0.13600961991659502,-6.559467282771018,-0.0003062468227811024,-0.0062730136932834125,0.0007423409374351629,90109.46678259871,,,
3.43,-1.072454950662188,-0.14127604868599422,-8.017723891672537,0.001904627954890517,-0.006799897639203266,-0.0006477231887775451,,,,
3.44,-1.0731562658267637,-0.14165080697879545,-9.458667688667537,0.0018257071867510781,-0.007282269561749979,-0.0006027709339688692,90049.45044917244,,,
3.45,-1.0731397545094294,-0.14264748651073494,-10.756429752355766,0.0005776520568552528,-0.0073712631601090955,0.00026960610030876274,,,,
3.46,-1.069540580493249,-0.14175361834199157,-12.042526030809322,0.0005193535085969486,-0.0065804528794111096,0.0008728354122213227,89988.07012828845,,,
3.47,-1.0722507234768635,-0.13366862700081353,-13.16431646754912,0.0008563036017580528,-0.007403616979496419,-0.0012391915567034572,,,,
3.48,-1.074171221851565,-0.14088806904677362,-14.266787942787017,0.001237466402009812,-0.005665087549135775,0.0002810527360217058,89928.02796877036,,,
3.49,-1.0747285152659791,-0.14372965463457146,-15.222816546581656,0.0007128845610846406,-0.006148028287162783,-0.0006011676014080011,,,,
3.5,-1.0755929008051162,-0.14363551453920426,-16.16019113078388,-5.6573522391331014e-05,-0.007218193653689374,0.0003875702984196178,89868.13354732377,33.49874161911392,-99.33781812899198,995.197873042713
3.5100000000000002,-1.087322363708419,-0.14092024802887723,-17.042116232946285,-7.296605812047853e-05,-0.007113724257372348,-0.0007563388008410024,,,,
3.52,-1.0764075409238403,-0.1422820122485681,-17.914272899719425,-9.190884640739158e-05,-0.006671553592371624,0.001008266664806702,89807.82043084827,,,
3.5300000000000002,-1.0828405493257898,-0.143362622129944,-18.757780792153813,0.0013872538291455142,-0.006294733231940708,0.0006976808891195835,,,,
3.54,-1.0871899812610544,-0.14731426746605247,-19.60139659045208,0.00019118665092914477,-0.008477763486727189,-0.0011357543096179215,89747.15615611934,,,
3.5500000000000003,-1.0837880625182275,-0.13730010842469484,-20.367300770443443,0.0019130579278414015,-0.007313645479969903,-0.0009448706328643391,,,,
3.56,-1.087237467557616,-0.14669260112561341,-21.128442460124884,0.000511033362462038,-0.005804020767409996,-0.0008570162302993715,89688.10799941422,,,
3.5700000000000003,-1.089541447262482,-0.14855190787060912,-21.899019005405265,0.0006297530403931418,-0.005788892889172989,-0.001914389483206435,,,,
3.58,-1.081738330338016,-0.13779408747968178,-22.66196432519175,-0.0010932393074228382,-0.008374385915090134,-0.0012083190792978183,89627.27893974034,,,
3.59,-1.0928009095489184,-0.13630733225430974,-23.155800645822012,0.00146261185106549,-0.006645716886148739,-0.0010262054340249584,,,,
3.6,-1.0936446587446174,-0.14030485345702998,-23.61610422440302,0.0016897312738667631,-0.004367138235881279,0.00036001054997038875,89567.75075870626,33.49869815991232,-99.33785183547462,1031.8916322491943
3.61,-1.0937416428241111,-0.14457865924667954,-24.07733068989565,-0.0002822252106568087,-0.006912574792912506,0.0002645640105244172,,,,
3.62,-1.0870125828239674,-0.13961965990649844,-24.538627651341262,-0.0010672681344670923,-0.006100757531164214,0.00239825808452337,89507.07312677387,,,
3.63,-1.0923454670024164,-0.14703728050535533,-25.194575462685197,0.0010768389958360418,-0.005271880101322095,-0.0014853842284626858,,,,
3.64,-1.0981843221862322,-0.14481346373719764,-25.853359943508462,0.0010704363636128752,-0.004576038633008893,5.5227792523907853e-05,89447.34929561711,,,
3.65,-1.096472375997376,-0.1441057903022309,-26.48415401724855,-0.0010017820117289443,-0.005638531327611242,-0.0008493069844720873,,,,
3.66,-1.0995226522859178,-0.14154823204634337,-27.109515463902067,0.00197030536904398,-0.008035737797857488,-0.0014632287890027126,89387.30743978178,,,
3.67,-1.0949575705671788,-0.14181810445555568,-27.9645993003335,0.0018457874813074934,-0.006278923374810071,0.00039764352825669326,,,,
3.68,-1.1020716410867288,-0.14284579873700898,-28.84181369514274,0.0013013901778077726,-0.0065879015538209875,-7.406092407062755e-05,89328.15924279152,,,
3.69,-1.1026342832490097,-0.1442419670559606,-29.621128073370446,0.0027966650837143144,-0.007105612468090932,-7.788409643496028e-05,,,,
3.7,-1.102338144113163,-0.14071661945893452,-30.397661850660153,2.4690092137075268e-05,-0.006552333258450914,-0.0013442406895550567,89267.51346817298,33.49867345704541,-99.33781002789502,1047.762779268555
3.71,-1.1066886923853403,-0.14060727477512394,-30.90112562324582,0.0024774883439795015,-0.0059852473817168265,0.0007956730633039651,,,,
3.72,-1.1055089154608706,-0.14195218549611818,-31.36895243528735,0.0015650806888543344,-0.008290436493406963,7.430693759233014e-05,89208.14203941013,,,
3.73,-1.1067849620366732,-0.143060851869168,-31.777743469836455,0.0005719922586434754,-0.005029787480335429,0.002324209668761886,,,,
3.74,-1.1064736704356353,-0.14526361579818328,-32.172744585888495,0.0009499524538341014,-0.006968330038490482,0.0007990312887138401,89150.08030835718,,,
3.75,-1.1155840093741287,-0.1466766821851031,-32.49008707810853,0.0023402736231185927,-0.006424353377032879,-0.0006680451508982404,,,,
3.7600000000000002,-1.1135672045263847,-0.14526467338393279,-32.810244074450665,0.001186955898872794,-0.006388186401559601,0.000291900043188142,89090.29327085713,,,
3.77,-1.1098433137476449,-0.13737719331205195,-33.060636023212766,5.512911442849002e-05,-0.007778546312696656,0.0015029432533845675,,,,
3.7800000000000002,-1.1127076743060291,-0.14401274300720784,-33.303512367919026,0.0009659305358987485,-0.007429619465643859,4.9175965782647234e-06,89032.56531787681,,,
3.79,-1.1170529520369388,-0.1445215751010934,-33.49689455163992,-7.299867865546874e-05,-0.007254942581666809,-0.0006334369151073376,,,,
3.8000000000000003,-1.1204345098195987,-0.14273835179399658,-33.68728099078599,-0.0014032472787319679,-0.005887760814792891,-0.0008430368906622148,88973.03354756492,33.498701282037146,-99.33781465672848,1079.6219796344365
3.81,-1.1133397457776193,-0.14370504304145698,-33.815919201200344,0.001985148114492005,-0.008064714077884857,0.00022349116285140587,,,,
3.8200000000000003,-1.116772222665861,-0.14406156727034017,-33.92583286411915,0.001420537793855692,-0.008130524582210679,0.0008389018962655322,88915.20795896385,,,
3.83,-1.1213182050806723,-0.14648905485526342,-33.99834173568329,-0.0003812660874868422,-0.006793822559160641,-3.059433395408574e-05,,,,
3.84,-1.1218989250876534,-0.1417042074286683,-34.06507743170896,0.00044822739805410806,-0.005426918405118444,-0.0015240790701820984,88855.91289807645,,,
3.85,-1.1233652106973349,-0.1409575834242225,-34.10163601428127,0.00015929516314812934,-0.008606782278584474,-0.0007210307920394358,,,,
3.86,-1.1258322007140436,-0.14719853215994652,-34.12769472505542,0.0016308536003710279,-0.007420396199059149,0.00024713778250662913,88797.70919056714,,,
3.87,-1.1261973436575803,-0.1447923916048977,-34.17802345134033,0.0011232201670234067,-0.007335381486424366,0.002676296965272431,,,,
3.88,-1.1236639502600583,-0.14659943658714542,-34.2279058697392,-0.0007953697515350721,-0.005617497801276141,0.0006015699100326718,88738.49085021671,,,
3.89,-1.1314695900770662,-0.14949067846332498,-34.27647384823625,-0.0007672403919076856,-0.006410172679740783,-0.0012799387122044655,,,,
3.9,-1.12471598080285,-0.14607345278429948,-34.3264251401053,0.00025375033283538465,-0.00556469265620945,-0.0006334156754767822,88680.87757553264,33.4986884208755,-99.33786349974505,1113.6430718401825
3.91,-1.1300306331448982,-0.1481391926863412,-34.66251530977374,0.0007365561983224925,-0.007747501636243469,-0.00045390451395214027,,,,
3.92,-1.1361164549194518,-0.1527103217034995,-34.62083835917541,0.00032417676502023745,-0.005318105950383015,-0.00019493105645635537,88624.40542736751,,,
3.93,-1.1283649958233208,-0.14169486708562132,-34.581182433653375,0.0014967086245682812,-0.0070996526861163275,2.4717001415834845e-06,,,,
3.94,-1.1337496807415037,-0.1432289866704847,-34.5519080750784,0.0005174808034970073,-0.0041853108643007215,-0.000901457703180319,88564.89661367553,,,
3.95,-1.1356348864225767,-0.15025766579101293,-34.510661832336204,0.000516609371326989,-0.006639235237761404,-0.0007256534939769288,,,,
3.96,-1.133589456602926,-0.1450795210880737,-34.47297225055711,0.0018085943553129004,-0.004480839043605631,0.0006073660822816347,88507.32084918016,,,
3.97,-1.1364498060275983,-0.15044634550354405,-34.432727672942576,0.0014998053286378872,-0.004864398348388338,-0.0008981146060349466,,,,
3.98,-1.1435120027890937,-0.14729031055674588,-34.39607780659664,-3.522869101632467e-05,-0.007559283195629489,0.0019055789029622174,88450.25861336068,,,
3.99,-1.1424156774879175,-0.14898189330666078,-34.35985571126941,-0.00013720594314825356,-0.007775898682152476,0.0017631375412180369,,,,
4.0,-1.1436716699604919,-0.14482735044398853,-34.32785837658203,6.441654325669676e-05,-0.0064737422594427696,0.0006718808283875987,88392.44890386237,33.49871440607437,-99.33780050161198,1141.4411103843504
4.01,-1.1562622377380096,-0.15412962794278343,-34.289656595069005,0.0011662496020934886,-0.00625790056930801,0.0005308796247332784,,,,
4.0200000000000005,-1.1457167916946305,-0.1506112142625379,-34.252281568086694,0.0010040811761544695,-0.00788512593232061,-0.0009445390846935604,88335.38537399488,,,
4.03,-1.1500662498645258,-0.14812422534381592,-34.218906223137935,0.0003937740112035826,-0.008040911230856889,-0.00037219090542171677,,,,
4.04,-1.1492571273827161,-0.14303443557885742,-34.17834421799541,7.623723881469908e-05,-0.006165115357357145,-0.00023126332966325557,88276.9647051387,,,
4.05,-1.1466413138615352,-0.14754777831334914,-34.14725216849438,0.0004158453070725483,-0.007056917554007351,-0.0007364088670995749,,,,
4.0600000000000005,-1.145738718675558,-0.14830462884326368,-34.10143894528758,0.0011184592659674807,-0.006875648610553894,0.00029395833295927564,88219.97592611283,,,
4.07,-1.1553877167949116,-0.148775560639889,-34.065632012633706,0.0027282074253696794,-0.007333651565276628,-0.0004542014452882326,,,,
4.08,-1.1538469785584953,-0.1529771893248389,-34.03161383678982,0.0005968734291370472,-0.007778839986750503,0.00015244423802083064,88163.29095247443,,,
4.09,-1.1569375725901905,-0.153145656957398,-33.99470777127645,0.00025587439884558206,-0.00580951744429474,-0.0013115563098634072,,,,
4.1,-1.1578430309275398,-0.15441929807433954,-33.96219720511226,0.0006925658106953166,-0.007954086059011286,0.002129741396932834,88108.14446146159,33.49873298025956,-99.33785082327321,1163.7433040980827
4.11,-1.1610024502492253,-0.15291906735579672,-33.92869040300828,6.086876179988354e-05,-0.00680072367755305,0.0001827935152568427,,,,
4.12,-1.1614644488996497,-0.15459158514955915,-33.88703452137574,0.001569184100513205,-0.008734976781248321,-0.00032905955213615725,88050.74454219324,,,
4.13,-1.1650471595434881,-0.14927122842823454,-33.848343820627214,0.0005902035736892601,-0.006947499750840191,-0.0005515967789500546,,,,
4.14,-1.1614042703972813,-0.14597934052742434,-33.82371951676462,0.0021532459499833804,-0.008183798576032783,0.0005036017586356467,87993.77584289439,,,
4.15,-1.1600277490569575,-0.15070535110318553,-33.778076493408285,0.000993097349781636,-0.007227270799410152,0.000903832300538582,,,,
4.16,-1.1657955187876479,-0.14805693271189982,-33.74195419388309,0.0004822698426336391,-0.006864918621516737,-0.00030404340151718825,87938.19206014166,,,
4.17,-1.1653429223857614,-0.14797326873613864,-33.70947702233923,-6.9517626571072e-05,-0.0060680268767320375,0.00042760438818406236,,,,
4.18,-1.1693412370935403,-0.14561955347490557,-33.6766123298213,0.0003562034613711261,-0.006187347356016016,-0.0012294182547566116,87881.8263651507,,,
4.19,-1.1724109243115206,-0.15065046093043116,-33.64022140622599,-0.0013203760700620773,-0.0071416488009066505,0.0002795268093184516,,,,
4.2,-1.1707195560883752,-0.14944143316994463,-33.60733144082528,-0.001093414622054729,-0.005758784324906768,0.0005812342774184242,87825.52159370494,33.49869686458163,-99.33790335877038,1185.0790288374988
4.21,-1.1766183078837364,-0.14969580276061248,-33.567197488699904,0.0010053417605998365,-0.007912397109119331,0.0008570534261983233,,,,
4.22,-1.1689842937090067,-0.14804249730062263,-33.534758466941895,0.000592196530167446,-0.004218207006603155,0.0006346211231066495,87769.72569903721,,,
4.23,-1.179853131020111,-0.15081268960397926,-33.499150693642754,0.0019065806661863888,-0.006622337777825901,-0.0027519132544327396,,,,
4.24,-1.182319215299532,-0.14607387088292292,-33.470995328884676,0.0007902330048655598,-0.005321347880100694,0.0008389926011083169,87713.62531619669,,,
4.25,-1.1815558185933286,-0.15128092621159286,-33.431985087708384,0.0004490055527714418,-0.0057030911105461785,0.0007432501597927996,,,,
4.26,-1.1824621750366875,-0.14873189471159565,-33.395806413766124,0.0025624239338424585,-0.00722759243788122,-0.0002876978328213992,87659.31784278688,,,
4.2700000000000005,-1.1807143395384945,-0.14899835137988873,-33.357022656175715,0.0018791678235705093,-0.008407751212947468,0.0005833392305456288,,,,
4.28,-1.185731795019856,-0.14917454960903268,-33.33153777605781,0.0008628386975122486,-0.007904407627197864,0.0003122364963795035,87602.33910517329,,,
4.29,-1.1864749160897483,-0.15518275272916426,-33.29224027120046,-0.00026100837741235914,-0.007384789497938614,0.0004637548461816192,,,,
4.3,-1.1888339934969492,-0.15122730552408684,-33.26195308452287,1.4983958092809938e-05,-0.007464135542633544,-0.002333260408432581,87548.37532226634,33.49871844086287,-99.33784118804687,1208.741027539469
4.3100000000000005,-1.186501952447707,-0.1496938452492955,-33.231074641909224,0.00043967885553363774,-0.005566184401650833,-0.0006074862013776284,,,,
4.32,-1.1851885370281179,-0.1516833363759476,-33.190180053144005,0.0006274444480249907,-0.007417648210877219,-0.00017209576672147045,87492.33830142814,,,
4.33,-1.186704008916065,-0.149523506365425,-33.155996208513045,-1.0685286100540039e-05,-0.007291607241606566,-0.001288087852942182,,,,
4.34,-1.186654908676636,-0.15631290441911252,-33.12756756676968,0.0007902856450830521,-0.006962686883225116,-0.0013453741332594927,87437.15398586576,,,
4.3500000000000005,-1.1915803695521303,-0.150736960062886,-33.094413232104436,-0.0015146978628386915,-0.005845268021525576,-0.00032030952156704136,,,,
4.36,-1.1945789843660912,-0.15407451126177016,-33.06297628815714,-0.00048768579308539224,-0.00629734196646896,0.00034594075960496946,87381.50075127109,,,
4.37,-1.1955750094444897,-0.15306699271738589,-33.02277550605811,0.0018418136143470948,-0.007675104344139811,-0.00029729419297338345,,,,
4.38,-1.2024340018013804,-0.1529941252151674,-32.98913034241557,-0.0006589016381556357,-0.0070432457225302735,-0.0010294510250932504,87326.46556854722,,,
4.39,-1.2029007943998569,-0.14903349328627447,-32.95839228803172,-0.0002652248274018056,-0.006162242924662544,0.0009965473048648154,,,,
4.4,-1.2006523574304806,-0.14937182597577237,-32.921981107528616,0.0006705143334954125,-0.00669190822947862,-0.0020883668443109713,87272.978014603,33.498711284962496,-99.33788938242446,1241.429100906757
4.41,-1.2013130348797865,-0.15030921365842487,-32.889347509433364,0.0017024692805981787,-0.006921580356471928,-0.00013522893795054908,,,,
4.42,-1.2001255604338918,-0.14959910334354312,-32.85480811733296,0.00011006171476023608,-0.006146627780101307,-0.00016839956310048623,87217.08626884705,,,
4.43,-1.2048371005447778,-0.152340904550522,-32.82221910952512,0.0016977325420095765,-0.006515642373890402,-0.0019353690669415829,,,,
4.44,-1.2048685933794812,-0.1541852725980997,-32.79533620228641,0.0006454737868716243,-0.006905293530124633,0.0013600084253829298,87162.69811510241,,,
4.45,-1.2043650486802038,-0.15678988879621866,-32.75995773793281,0.0005244578533722753,-0.009685205057983221,0.001261113886991538,,,,
4.46,-1.2026349213448437,-0.1480595320011748,-32.728362144275046,0.0006586787421722054,-0.008051187236366018,-0.0005483019213464913,87109.7900940394,,,
4.47,-1.2088701019208232,-0.15118264510711074,-32.69062060153734,0.0018276801425811387,-0.006927467855879261,0.0008953392472562409,,,,
4.48,-1.2057224227558638,-0.15896779059466187,-32.66822168629642,0.0007236700212258553,-0.005719226192660029,-0.000657937026427173,87055.00460392241,,,
4.49,-1.2175515025080679,-0.15201971393479827,-32.62795728654042,0.002665374655940762,-0.008132633588190568,-0.0031411518170717015,,,,
4.5,-1.217548222487197,-0.1542352873113954,-32.60124964801967,-0.00013246130469261354,-0.008278449522702513,0.00043732333749722547,87001.84081040887,33.498648662778464,-99.33789766144079,1266.1730846423504
4.51,-1.214498108042738,-0.1544006563608745,-32.57819397538943,0.0008497222417596576,-0.006137700643427882,-0.0016279836503952034,,,,
4.5200000000000005,-1.2193196876015506,-0.15452596715692313,-32.555529855442046,-0.0009152502533999872,-0.006406729977387373,-0.0016791361716459448,86945.87739044291,,,
4.53,-1.2158852970226923,-0.154458520721544,-32.52849015044247,-7.260698117784504e-05,-0.007976466989839195,0.0005882274895667287,,,,
4.54,-1.2200204550055698,-0.15458266041312677,-32.49123460620031,0.0012683287340320495,-0.007689201247979986,0.0003182574938299342,86892.60175228602,,,
4.55,-1.2204490438421471,-0.15431863044089428,-32.46042810663228,0.0003610130310679249,-0.006411776332812532,-0.002151660320561641,,,,
4.5600000000000005,-1.2268222315614803,-0.15976142850509348,-32.4326494208209,0.0007381091892489061,-0.005620839162036339,0.0007943816351826909,86840.1956992978,,,
4.57,-1.2261519865074768,-0.15282159182103833,-32.400015923582195,0.0016741769238800336,-0.005465597318074944,-0.00017952779877720998,,,,
4.58,-1.2252272199374725,-0.1506102266978611,-32.36623869055953,-0.002066560566728737,-0.007718094796881839,0.0008201293867618145,86785.3606494089,,,
4.59,-1.2204050727373434,-0.15625144994270418,-32.338620271381814,0.0004075375784831788,-0.007204760405325218,0.001444695606961675,,,,
4.6000000000000005,-1.2316850381847728,-0.15735582042746005,-32.30552540324869,0.001481227478626711,-0.005643961817933186,-0.00041402336307307715,86732.66214493338,33.498704645194685,-99.33795347648787,1299.9991354918773
4.61,-1.2271409276895668,-0.15578033703520097,-32.27645125950195,-0.0004174218657621372,-0.007143105666082858,-5.792172556522446e-05,,,,
4.62,-1.2224762771802191,-0.1539127621134754,-32.250117051515595,0.0008451688068599993,-0.007353770029170697,2.930306025045025e-05,86679.62451016322,,,
4.63,-1.2368634516984498,-0.1477642455822597,-32.21682513987044,-0.0005358252420148295,-0.005570967666571025,-0.0010956819391930881,,,,
4.64,-1.2348130688743475,-0.1579006900063237,-32.17976336023235,0.0011420510901541574,-0.0052291572011441655,0.00010523378792690258,86625.94891088732,,,
4.65,-1.2311054663261272,-0.16081897922345417,-32.158146276947505,0.001692467218633794,-0.006521776618253235,-0.0005979644981094093,,,,
4.66,-1.234514104687486,-0.16162050215889717,-32.11788277437993,0.000569622945961787,-0.007452843910983388,-0.00015246660275962677,86573.27554829148,,,
4.67,-1.2344136192510207,-0.1504584139440803,-32.091597726185405,0.001764738130358314,-0.005764709665834497,0.0005695762542079778,,,,
4.68,-1.2368634575542021,-0.14993735059554272,-32.0658514863004,0.0014271320843755163,-0.009205522664108148,-7.89353650016918e-05,86519.76497590753,,,
4.69,-1.24294813962346,-0.15565692407845835,-32.02664578791037,0.0014407776125425244,-0.006021835235132677,-0.0006306354182132241,,,,
4.7,-1.2382539488830584,-0.15382665798144712,-32.0018663222021,0.0007852445980046029,-0.006304054894833217,2.7869455486422722e-05,86466.68924066168,33.49870911677368,-99.33792644465096,1308.1205846186174
4.71,-1.2401558760842928,-0.15615170603681372,-31.97781463075439,-0.0001896963203435987,-0.0071686395031445955,0.0005647356797472742,,,,
4.72,-1.24173610925713,-0.15404817186385875,-31.954854847530196,0.0008505629453111165,-0.007491569259307025,0.0011101573886007935,86414.59226868088,,,
4.73,-1.2490990796395622,-0.14639744409825964,-31.92941459908549,0.0012456724896280835,-0.008359508334478575,-0.00016648702541227143,,,,
4.74,-1.2430437403657941,-0.15052726811268266,-31.897608214744853,0.001599405181112266,-0.0072259795087901745,-0.0012722242212494946,86362.74543404391,,,
4.75,-1.2509287387786683,-0.14678618200063878,-31.868481976863276,-0.0010221087305927064,-0.007682405487402222,0.0018934018442151078,,,,
4.76,-1.249845659880313,-0.1478658562240727,-31.843707555475365,-0.0001364647362038778,-0.008376209596313609,-0.0007955075918786857,86308.97911889815,,,
4.7700000000000005,-1.2543169432130683,-0.15707410875330186,-31.805875693642648,-3.686981418930379e-05,-0.007050656781995824,0.0013826028915509075,,,,
4.78,-1.252493760020753,-0.15976042464364662,-31.779719874796587,-0.0003100876423320424,-0.007401581439190352,0.0001355774743101007,86257.84325436213,,,
4.79,-1.254715558116101,-0.15580537601501993,-31.746094522747715,0.00043399610554661075,-0.007698211332147839,0.0006699707754966706,,,,
4.8,-1.2485927942853974,-0.15938072107164217,-31.720972084672955,0.00015406977804840994,-0.00764986125751717,-0.0007738588921328215,86205.2129061424,33.49872214318558,-99.33798414291135,1339.0984696222263
4.8100000000000005,-1.2590425076524259,-0.15758077468745108,-31.690282814999144,0.0008854449327874316,-0.009309553339703425,5.373869193639442e-05,,,,
4.82,-1.2529081766563552,-0.15405593246066085,-31.668629509939798,-0.0009126246401853077,-0.006212011756141252,0.0006723402374495624,86152.58703869245,,,
4.83,-1.2636581682216876,-0.157588094030134,-31.636743470749202,-0.00044820158879083473,-0.006497774626936107,-0.00013858371540763484,,,,
4.84,-1.260938443981544,-0.15132701246252994,-31.60786657272642,0.0010041479352206014,-0.007116616313280545,0.0005308763896697857,86101.37746946949,,,
4.8500000000000005,-1.262239266744632,-0.15583804519031794,-31.58384038057545,-0.0009298455655997668,-0.006240592117078618,0.0006317366879402373,,,,
4.86,-1.2670906542261966,-0.15512382714710246,-31.552423775083323,0.0016962118170905603,-0.008054512542768387,8.696935997853002e-05,86049.98442785213,,,
4.87,-1.2662850538368344,-0.1572458030401296,-31.519889701288513,0.0015912976066349885,-0.008492702954165926,-0.000405010054392301,,,,
4.88,-1.2653938120965786,-0.1556752848142437,-31.494725153262806,-0.00029961718300008553,-0.0065306957984223825,0.0005159878271475351,85996.12389577464,,,
4.89,-1.2666130452044777,-0.16030803206232427,-31.458861548058753,0.00020045874568450284,-0.007817713069362655,-6.585858587946814e-06,,,,
4.9,-1.2682460941515645,-0.1557448366655218,-31.43406289051218,0.0015016955439880455,-0.007947336407662304,0.001239841155963031,85946.31520211141,33.49874248853827,-99.33795365132106,1364.195684138098
4.91,-1.2670476355126252,-0.15681507399003544,-31.413347974820724,0.001880162746979652,-0.007051001785267144,0.0009645491618352734,,,,
4.92,-1.2743254975037333,-0.1577188322204666,-31.38534853085798,0.0016553807196262094,-0.006086912690948899,-0.0013466280528170913,85894.84857226365,,,
4.93,-1.269087537541074,-0.15230121293483145,-31.366312059247406,0.0014012444508552835,-0.0068881086338124665,-0.00012270275403121638,,,,
4.94,-1.274325146785517,-0.159763570427788,-31.34174224908667,0.0018975480425462324,-0.00498681697490979,0.0014464361065076538,85842.70617416975,,,
4.95,-1.2714408642275254,-0.1605806548285697,-31.314014216234046,-0.002103525487170221,-0.005929129988027202,0.0018783923985960457,,,,
4.96,-1.2800359838693234,-0.15474867541852608,-31.28764753111235,0.0026143993047670917,-0.0065782241086458785,-0.00032872510718394264,85791.21522069816,,,
4.97,-1.2782131327514,-0.1564665921284907,-31.257834705640796,-0.00033179928917295893,-0.005667729692023327,-0.0019730618351124314,,,,
4.98,-1.2789727927153336,-0.1604249852169779,-31.223357353713656,0.0008387824180931659,-0.006959462731979745,0.0007074648689335633,85740.22101156469,,,
4.99,-1.2785659052193326,-0.15738917778813513,-31.19542171954657,0.002186074752388179,-0.006220215471051291,0.0013136808475961309,,,,
5.0,-1.2846900664226424,-0.16445342369427618,-31.1711999330561,0.0026426868432889096,-0.007460295736723791,0.00023888176869738762,85689.78191607891,33.49875751014204,-99.3379869635055,1393.43545103875
5.01,-1.2907798591449715,-0.16019290850444184,-31.136867717637625,-0.0007025499685460215,-0.005580147947605777,0.001579908442744411,,,,
5.0200000000000005,-1.2872629431993563,-0.15952636671838388,-31.110644526235482,0.0011151167420945045,-0.008031655056063212,-0.0001367422637072507,85638.25081358656,,,
5.03,-1.283741377545925,-0.15231975322314817,-31.081333525408848,-0.0011547808225781204,-0.007998061272429687,-0.0008875048462305678,,,,
5.04,-1.2861823217847599,-0.1538757204279184,-31.055497674792832,0.002268482107408546,-0.006221351076101853,0.0006314614780789268,85587.29322382892,,,
5.05,-1.2950624484084154,-0.162017892648192,-31.03334325563378,0.0008940289065968901,-0.007436643471987161,0.0007036841143247487,,,,
5.0600000000000005,-1.294599161845323,-0.16227366772861188,-31.013626947678436,0.00044896171384242636,-0.009243324237327603,0.0005095463753140345,85537.04187596218,,,
5.07,-1.2892914106992068,-0.1599908588637233,-30.98996361313114,0.00040012909266188835,-0.006507730955859045,0.001165024216423673,,,,
5.08,-1.2965024122709912,-0.16116986537333264,-30.961736664237137,0.0007394340631537112,-0.008393480446782835,-0.0008023715578019795,85486.29218409066,,,
5.09,-1.2926042051393927,-0.1566880318120403,-30.943867767978237,0.0009613774650668223,-0.009092244228561907,-0.0008386176249715672,,,,
5.1000000000000005,-1.2914730281798812,-0.1584889332772005,-30.911524259066653,-0.0008715992519282116,-0.00802278094855762,0.0009877453528478082,85435.01683705351,33.498749993964545,-99.3379786516774,1407.467846033591
5.11,-1.295962852628602,-0.15965775299808882,-30.891624906811582,0.00016599137867058105,-0.007557065897739033,-0.00011268855020621394,,,,
5.12,-1.3182671404050847,-0.1628132143066629,-30.858475898980046,0.001167332473138737,-0.007052301926401762,-0.00047487344694427717,85385.28074912041,,,
5.13,-1.3285794214197844,-0.1680955368543427,-30.829385077605558,0.0006436771478901227,-0.0074721181236276826,0.0007377858709186387,,,,
5.14,-1.343395021705571,-0.1746115067647737,-30.80752668839812,-0.0003233832080793,-0.006395485878545344,0.0008497177341105024,85334.590341608,,,
5.15,-1.351728673573785,-0.1743043356156269,-30.77483393175331,0.00036689054720951303,-0.004752789655275641,0.0016781230004106946,,,,
5.16,-1.3546530173092284,-0.17584718808659663,-30.75110119473197,0.0018040391669999442,-0.0059175204155779955,0.0007885637412499626,85284.43401648353,,,
5.17,-1.352974301802127,-0.1753322513427719,-30.72931948458209,0.0008863014723830063,-0.0034431613732382477,-0.0004379902668460048,,,,
5.18,-1.3556564714753598,-0.17705933719819394,-30.693930151729376,4.165139000004682e-05,-0.0047302896417740535,0.0004514970736014412,85235.14813418897,,,
5.19,-1.3481723544803539,-0.17347802501989154,-30.67314020614993,0.0010812455345722352,-0.003742100914694779,-0.0005204256427551285,,,,
5.2,-1.3432387327187654,-0.16959110420154883,-30.654996248934285,-0.00030664096866208837,-0.0027712701139693302,-0.0010971342606798972,85184.80342722124,33.4987406199205,-99.33797067361907,1444.0547134066385
5.21,-1.3420911034318395,-0.16942526305100936,-30.626027603252304,-0.0012963908024050674,-0.005294168884913307,0.0010457192786721891,,,,
5.22,-1.3313512925650128,-0.16271479316381118,-30.604765032283638,0.0002688965415459015,-0.0033590885987061997,0.0015267446486337411,85135.4436135637,,,
5.23,-1.3244251816596844,-0.1614340355761782,-30.5837036662706,-0.00017843245022931587,-0.0037744931176230596,0.001328356655749023,,,,
5.24,-1.3151281506475823,-0.1512143809644284,-30.56192482306176,0.00010006461708585846,-0.004956870056847365,0.0013244768717559955,85087.05917882257,,,
5.25,-1.309720579713924,-0.15574758885324233,-30.537762515690435,0.002930546447912854,-0.004140765618194142,0.000546610409998588,,,,
5.26,-1.3117904896544923,-0.15133604011713556,-30.511097485160565,0.0015138083808951034,-0.0042158698692806645,-0.001272759366576535,85034.98219913623,,,
5.2700000000000005,-1.3049822188171631,-0.15698017671316117,-30.486416041165192,4.4858629531472304e-05,-0.003967575846947646,-0.0004005125563247842,,,,
5.28,-1.308897215486932,-0.15014958801144923,-30.462823691972805,0.0011798613459119947,-0.005417503594010866,0.000598986608710802,84985.29023336746,,,
5.29,-1.3083815967621912,-0.155882367699342,-30.432930190753154,0.0013593303994835365,-0.005428463648379883,-0.0013840241028221108,,,,
5.3,-1.3185299384549107,-0.1528549002415972,-30.405587546766494,-0.000859421784280164,-0.005005677245375312,-0.0018909428095161636,84936.10904454798,33.498703394423266,-99.33797777540762,1457.3987040062923
5.3100000000000005,-1.322500927850476,-0.15956795738563498,-30.3787481185187,0.001648484852474934,-0.005905503457194839,-0.0007148096630979343,,,,
5.32,-1.323365071111319,-0.16135139660976136,-30.358717575569695,-0.0010781273083619108,-0.0080570611455211,-0.0005076140271920667,84888.26047664355,,,
5.33,-1.3289078642558927,-0.16278798841584116,-30.33049619750729,0.000534347298339808,-0.007668000570459504,0.0017445365824420532,,,,
5.34,-1.3367867699428595,-0.16516899282780662,-30.302692790936177,-0.0005504225910808134,-0.006815782215079376,0.00029008507850025527,84839.36374330672,,,
5.3500000000000005,-1.3408162797552379,-0.16773201476654268,-30.281310024699323,0.0012991164760703842,-0.005132265350733502,0.0008921668327916778,,,,
5.36,-1.3510580369973257,-0.16934595048508616,-30.254179401328336,-0.0013157000128015493,-0.004117250951486198,-0.00027349089231590165,84789.52937710729,,,
5.37,-1.3473241737332122,-0.16590848984137707,-30.2315246301974,0.0004454533346407372,-0.006624697616408323,-0.0009723323933888731,,,,
5.38,-1.3514040398093667,-0.16697199288829687,-30.212929164601444,-2.411136326338091e-05,-0.006669037925775931,-0.002198078460058274,84739.92117536829,,,
5.39,-1.350357143498758,-0.16369997841741496,-30.189423512490105,-0.0011996866399438663,-0.006276806603209745,-0.0004654468051149551,,,,
5.4,-1.351665434273805,-0.17715491744732778,-30.171366366993567,-0.0004122492647799981,-0.004792911151175283,-0.0011571508202387045,84692.12702960767,33.49871787842527,-99.33797926287718,1498.0407233253825
5.41,-1.3510737186419626,-0.17116174780056848,-30.144463570343206,-0.00014576388325429558,-0.003254230790247144,0.0001846123469203204,,,,
5.42,-1.3487257743038663,-0.1654547545241747,-30.119446171391676,0.0014467897068402209,-0.005760780241093243,0.0024828632139104086,84641.85181701748,,,
5.43,-1.3476622040353257,-0.1625914134303363,-30.09566068007763,0.0001379386557097255,-0.004856390610398298,-0.0017583905597209543,,,,
5.44,-1.3497367459002396,-0.16394423219264284,-30.07101819446193,0.0004962959698180314,-0.001404187561944219,0.0008478262977829666,84594.781432276,,,
5.45,-1.348682320024316,-0.16414215776041768,-30.04279449024705,0.003263691854934395,-0.0036640105857782723,-0.0012549674059094576,,,,
5.46,-1.3452460396325752,-0.16116380052344575,-30.024385483276003,0.0011491608012396519,-0.0042682863834334695,0.0004251589998484061,84546.35072524272,,,
5.47,-1.342714000382139,-0.15525109088943884,-29.989629977971198,0.001551884944426966,-0.004966273048469894,0.0003253441292615668,,,,
5.48,-1.3427984040271865,-0.16268926696320676,-29.96562222993167,0.0016460565069316975,-0.0051120477052861366,-0.00018267935605826587,84497.0703040909,,,
5.49,-1.3392638602463294,-0.1614041838593425,-29.94074100066473,0.00230260291582225,-0.004844895332860195,0.0013366157146029627,,,,
5.5,-1.346430440074698,-0.15723535958667154,-29.919065659491793,-0.001258915425284166,-0.004487601688508084,-0.000743996258430634,84448.5582228795,33.498706381485,-99.3380374893062,1522.4903721978135
5.51,-1.3466486048979125,-0.16337614138009293,-29.892592163158227,0.0009576631872542779,-0.0059743813944558724,-0.0004446758690895337,,,,
5.5200000000000005,-1.3435439738567403,-0.16112964405341015,-29.876043317226596,0.0009482623346497726,-0.0056028122756394735,0.0013145426521098886,84400.15443484443,,,
5.53,-1.3467230788084592,-0.16794172606605964,-29.854370440872064,0.00202534727973852,-0.0051549853922905516,-0.0004938629811357245,,,,
5.54,-1.3530410168819322,-0.16174610511001505,-29.833599777009614,0.0025279806693021666,-0.005124729102939345,0.0017845970488257921,84352.38234183563,,,
5.55,-1.3572676289743497,-0.16503667740037212,-29.81506000802203,-0.0007973920143033277,-0.007748347582623303,-4.3328004798074775e-05,,,,
5.5600000000000005,-1.3557823713118526,-0.1667520166740071,-29.786162924895326,4.627612373881427e-05,-0.0030274477629682623,0.00020027269910331765,84304.7111172052,,,
5.57,-1.3582162034207235,-0.1663491271718789,-29.76203220554648,0.0009257882473762147,-0.006277158289624524,9.790939827758627e-05,,,,
5.58,-1.3646889825762625,-0.16347430882549951,-29.73878473442123,0.001717060413663098,-0.0065902478601372865,0.0010733022029616,84257.37039720156,,,
5.59,-1.3608095120809136,-0.16545541468886357,-29.710535224806133,0.001278788583895804,-0.0037271147784993203,0.0005170380463929405,,,,
5.6000000000000005,-1.3665857554369645,-0.16591590872429002,-29.695521566824976,0.001087134152685202,-0.00529881702198082,0.0005039384009050401,84209.29919632888,33.49875844326576,-99.33809115695323,1529.88797982441
5.61,-1.364372205597539,-0.16731825718621662,-29.67089577674134,0.0004296963785271775,-0.005896015839581325,0.0009297976509934484,,,,
5.62,-1.3632917653393013,-0.17003788069742903,-29.653456233792053,0.002081474930575963,-0.0029838668913039967,-0.00013681541453136733,84161.70412974994,,,
5.63,-1.3662456696075216,-0.1625357984649342,-29.632849093419765,0.00020895180492357877,-0.005817076663852566,-4.957445818606189e-05,,,,
5.64,-1.3674931749346038,-0.1680277228301454,-29.618745383810484,-0.0003686423721039865,-0.003435735273780001,0.00014266453342360314,84112.57375477202,,,
5.65,-1.363702115490243,-0.16851510004581663,-29.594683601641712,0.0014334580588087683,-0.006215154260542331,0.001448482491796777,,,,
5.66,-1.3708725601310965,-0.16624318609259545,-29.57151724649204,0.000701603229723973,-0.005320844389452551,0.0024793591402444454,84066.82799945115,,,
5.67,-1.373560764652089,-0.1637966952708903,-29.54037959838003,0.001901411537598166,-0.004505718568283053,3.885045400794389e-05,,,,
5.68,-1.3657925335374692,-0.16316969690759364,-29.517838774090542,0.00018396696257376942,-0.005769270425500309,0.0004414821686955575,84018.53719195207,,,
5.69,-1.3681040397102033,-0.16408096920220522,-29.493382814010474,0.0006630672468429947,-0.004474932578825451,-0.001552641226284975,,,,
5.7,-1.3728179137048122,-0.16076901987858822,-29.477650683368214,0.0022750459750201448,-0.006733463681812612,0.0004924001450339788,83971.70119062968,33.49874908771149,-99.3379575541558,1559.5701794938475
5.71,-1.3702876832525912,-0.16483668744995442,-29.447503126337537,0.0005853914898669092,-0.005466599814240764,-0.00045672499741119426,,,,
5.72,-1.373622268973372,-0.1620471198696579,-29.43053324359483,0.0004854370182315534,-0.006759717019895381,-0.00035645789135685033,83924.20901797869,,,
5.73,-1.373671308434777,-0.1685830148674013,-29.400637261846196,0.0019269190825891764,-0.005359873396248885,-1.2017103213814527e-05,,,,
5.74,-1.371684449268486,-0.16282334751742839,-29.383427258489682,-0.0005152172575787838,-0.005650280262194778,-0.0010102428319919588,83878.20042158404,,,
5.75,-1.3718927059416632,-0.169771162839792,-29.360102471095875,-0.00010826464048728913,-0.0063401515256419,0.0006485905918834547,,,,
5.76,-1.3775597692557362,-0.16237781565573822,-29.3376993441994,0.0013557948917281805,-0.004192823455839961,0.0017180743524065505,83830.32321968017,,,
5.7700000000000005,-1.3711289452680901,-0.1663472689879966,-29.318968950848788,-0.0003022182335869648,-0.004121413444088732,-0.000639810998600169,,,,
5.78,-1.378137899216917,-0.16182824836970403,-29.29742980196353,0.002519055354461068,-0.00530109690816696,-0.00021264499850958147,83783.31932181661,,,
5.79,-1.3879133503912862,-0.16344798009558,-29.27861455000054,0.001018414733103338,-0.004862285196392332,-0.0002136076878431686,,,,
5.8,-1.37437756555353,-0.1631836772645321,-29.267334407801386,0.001100013742811192,-0.005122034992492287,-0.00036438858649901005,83737.74398202499,33.498763323441054,-99.33804368474637,1574.8708218854165
5.8100000000000005,-1.3815399368393768,-0.16466372659727738,-29.239168234805952,0.003063052659247627,-0.0035671899084861874,-0.0013463302894643607,,,,
5.82,-1.3782908581834683,-0.16556490668207774,-29.215980452113676,-0.00014321872821282248,-0.004338511397659188,-0.001247920349150448,83689.30354070353,,,
5.83,-1.3776691919395947,-0.17191494102200428,-29.19460799608566,0.00037221134312417155,-0.0051257168922510124,-0.0007993714667542838,,,,
5.84,-1.3869987356859566,-0.1630898478492155,-29.175399929197496,-0.0005663666423471114,-0.007176086705908958,1.8573610997997693e-05,83643.40083141976,,,
5.8500000000000005,-1.3871150050199312,-0.1669262551690946,-29.152432867348576,0.0031031422443899806,-0.003089788422383635,-0.0008137928371353233,,,,
5.86,-1.391858662428781,-0.17235892428703103,-29.124230094358065,-0.00017339451950215278,-0.0047532048097903914,0.0008484761816120197,83598.00851682732,,,
5.87,-1.384132222093758,-0.1640647009059224,-29.110733172320206,0.001968046718754598,-0.007393065525344897,0.001778793911847849,,,,
5.88,-1.3883048702125151,-0.16475489712802432,-29.092826185610072,-0.0008101292313580742,-0.0051063622246271525,0.0008812914993984948,83552.49880987951,,,
5.89,-1.3899407555317118,-0.1664964371600525,-29.07610933911325,0.0004133883548054529,-0.00709919468550436,-0.0003799207198131797,,,,
5.9,-1.3899208679352555,-0.1701671689194646,-29.05726388369416,0.0015780737348491504,-0.004647649327743514,0.0007326239388223232,83504.22189964009,33.49876776492039,-99.3381138411169,1607.3236555000026
5.91,-1.3895925770157258,-0.17191531292531825,-29.034619185553662,-0.0009421343618779621,-0.005373203422366834,-5.219763825822905e-05,,,,
5.92,-1.3962125676468355,-0.1736264298706509,-29.010720211214462,-0.0003744899303577344,-0.005982221622519381,0.001160679376136465,83458.29344994639,,,
5.93,-1.3900958475757295,-0.16823213797576658,-28.98471527991227,0.0005572672851771199,-0.00569210860382198,-0.0008852484246873015,,,,
5.94,-1.3952904209543588,-0.1717752812267938,-28.96338334607231,0.0001207917462589434,-0.0046823528673133165,0.0006315029136382086,83412.62858095927,,,
5.95,-1.3961412408113325,-0.16244589558601058,-28.93918619554497,-0.0010842050376704865,-0.005207129046445241,-0.0001583314986113035,,,,
5.96,-1.3954388793456216,-0.16701097768689696,-28.92307300392002,0.0005989879078389092,-0.004470585722997872,-0.0005061778374732223,83365.84048831326,,,
5.97,-1.3986530877768413,-0.16649575308975462,-28.9043291180275,0.001385602259130711,-0.0053257253322758855,0.0003965871793393197,,,,
5.98,-1.4068033600711083,-0.17424691518415492,-28.880749835225096,0.00026815969533919455,-0.0043448950059354514,-0.0019245002624533527,83320.57589500674,,,
5.99,-1.4046317122667344,-0.16460336532630124,-28.871027139123036,0.0012414491202876977,-0.004749839786413489,-0.0009432662959459638,,,,
6.0,-1.4027383832141418,-0.1659591959179296,-28.85035544772035,0.0009898169706100992,-0.0036035341346295235,0.0008815129539030908,83274.76194301894,33.49877419776627,-99.33802576257335,1623.8595836199502
6.01,-1.3992704823411122,-0.1646575851817368,-28.827779362701946,-0.0014817161677023777,-0.0063908991192030765,0.00044920733525575417,,,,
6.0200000000000005,-1.399929727712333,-0.1712304059433741,-28.804151162183132,0.00015428492431148957,-0.005470847920803998,-0.0008744216035815833,83227.93356091481,,,
6.03,-1.405660713443313,-0.17058044374954373,-28.783137467657298,0.00031231456877226513,-0.0021000968214629303,-0.0018553618518694982,,,,
6.04,-1.4044258247112107,-0.16990416250929144,-28.762351056862226,-0.0013950531469883098,-0.00728959260595056,-0.00036465418936029384,83183.88252332981,,,
6.05,-1.4107705311508028,-0.1688389343727985,-28.746197101329205,0.0001646349105543685,-0.004152810744066622,-0.001625014374833009,,,,
6.0600000000000005,-1.4129038035403128,-0.16702445527981644,-28.72162364126998,0.0009697516331000462,-0.005862205271668781,-0.0010568560920489881,83137.86318688361,,,
6.07,-1.4060680981431046,-0.166084586587403,-28.706708591846482,0.0008522622398889015,-0.006865291454421985,0.00036426743544115534,,,,
6.08,-1.4136203440258355,-0.1706020213745023,-28.682259580675158,0.0005004951348289665,-0.005149263956481668,-0.000647106628069682,83092.19182722265,,,
6.09,-1.4116521823296564,-0.17369543444341698,-28.673822336887696,-0.00017970808994398303,-0.003392348445169952,-0.00024032370112862868,,,,
6.1000000000000005,-1.4110328877577298,-0.17148245466445391,-28.654180020110854,0.0006662342907793407,-0.005981438009671183,0.00039489842336577617,83047.46036413712,33.49878593226398,-99.33808576101556,1651.4282772909598
6.11,-1.4159828137243573,-0.16994327194622935,-28.638274885212777,0.0002880538301582257,-0.005543236132080115,-0.00020931646470030566,,,,
6.12,-1.4155935988432458,-0.17138479075322502,-28.61109711356028,-7.112096113752334e-05,-0.006359669451467109,-0.0006111484978030067,83002.28423475478,,,
6.13,-1.4167726854130867,-0.16787994170242418,-28.588696426891982,0.0016079157575494896,-0.004370383175380319,0.001258356620885664,,,,
6.140000000000001,-1.4147022155444042,-0.1748509678198117,-28.56837161755636,0.0017968684303582788,-0.007388883787118678,0.0012791221965063094,82956.13445666435,,,
6.15,-1.4144233509839823,-0.17085674436744175,-28.55433329589732,0.00018198961737451167,-0.004669070992572874,0.00021509021682352675,,,,
6.16,-1.4163509299825423,-0.17563573930407253,-28.525415293241657,0.0015393069703457042,-0.004507390487655525,0.0008908940600571125,82911.04749978559,,,
6.17,-1.4171175174223276,-0.17013455595252622,-28.517817400519927,-0.0005139946700257318,-0.006412146087459971,0.00011199092842967201,,,,
6.18,-1.425157795053063,-0.17189339538265383,-28.49215906539829,6.36849336932514e-05,-0.005514751858129199,0.0007668178638148029,82866.59855924922,,,
6.19,-1.4229025873139465,-0.17598286355686224,-28.47337060188674,0.0010594048918908428,-0.00428319660309226,0.001931669084358327,,,,
6.2,-1.422297732406557,-0.1694269287424347,-28.46348787306385,0.0007490421439626245,-0.005001496787443498,-0.00033296484023798536,82821.64513527992,33.498763488790445,-99.33808349242285,1665.7146476688647
6.21,-1.425780209043867,-0.1707525244858283,-28.44056800973697,0.0013618628329824132,-0.004392898716629277,-0.0030620631079061795,,,,
6.22,-1.423947421242552,-0.17180554414586652,-28.417635662497304,0.0006443672772844921,-0.005161482541876458,0.0022849024794951893,82777.24432364317,,,
6.23,-1.4267498308760627,-0.16889622407164515,-28.39248271588867,0.0010015710813648282,-0.005809496038406061,-0.00019182776217071732,,,,
6.24,-1.4282183979082064,-0.1733087964771444,-28.37495220932913,0.001137955983066737,-0.004958125160070205,-0.0004108538803302618,82733.75518077148,,,
6.25,-1.4281073972232747,-0.16748604207243334,-28.353207187411588,0.0009646273208256438,-0.0045657307706053855,-0.00018167044658296192,,,,
6.26,-1.4238516607562277,-0.17337006825180237,-28.335356062167772,0.0012147668736593427,-0.004191252541329491,-0.0013739210790241479,82688.63328737998,,,
6.2700000000000005,-1.429262368363447,-0.17091126823902641,-28.31352973311086,0.0006168511007157319,-0.0063412684995546005,-0.0022004961062263304,,,,
6.28,-1.4300646158806443,-0.17151568883675308,-28.299261342220184,0.0003548384984929405,-0.004671343152308605,0.0006840984681173227,82643.84102439928,,,
6.29,-1.4312423840371673,-0.17288944257633554,-28.28324969356987,2.939846308703056e-05,-0.006505209245918671,0.00020511910733524827,,,,
6.3,-1.436873595366688,-0.16625221088600822,-28.26615639032854,0.0007561825050127595,-0.005308791179900528,0.00023191625161432509,82599.91501652947,33.49878431918316,-99.33816086008537,1690.5724673021132
6.3100000000000005,-1.4332036393182352,-0.17459494200026934,-28.249778368565735,0.0017224810931237284,-0.004786618013597477,-0.00018110246051434873,,,,
6.32,-1.4375986506303542,-0.1687150345161736,-28.234405305692743,0.0015441339573821617,-0.006800194571460964,0.0014262197134528303,82555.09783352242,,,
6.33,-1.4306507723072386,-0.16750597322039532,-28.215077377506898,-0.00021388565333279317,-0.004967660261791193,0.00011088379185916678,,,,
6.34,-1.4455975835013248,-0.17349056949254493,-28.194049312262877,0.0006005312766965283,-0.004752525076915705,0.0008600929194481726,82511.59600167957,,,
6.3500000000000005,-1.4388175211408445,-0.17114891356792902,-28.173765578152093,0.00023104566312410232,-0.007276918567207691,0.0005284069873715516,,,,
6.36,-1.4382279560474645,-0.1737972956788873,-28.150342526247222,0.0007706212639479314,-0.006586382041626242,-0.00022355849953647686,82466.71230213223,,,
6.37,-1.444384162830891,-0.17563951680722711,-28.128525251460445,0.00010855903820773585,-0.005163157088281742,-0.00023281407041999245,,,,
6.38,-1.4445247202432752,-0.17387601060156224,-28.11919883528229,0.0013055694440993948,-0.005627725053838741,2.952030038016003e-06,82423.9305023432,,,
6.390000000000001,-1.4422087550149636,-0.17639406289189627,-28.097563315933595,0.0016336984429479494,-0.005022965923466323,0.0011168259385976403,,,,
6.4,-1.4430006987458672,-0.172311671651028,-28.084372755358736,-0.00026720322085571147,-0.004484921337067028,-0.001248346992065505,82378.49845739263,33.49882505704246,-99.3381270423693,1710.9881712166887
6.41,-1.4453764988641513,-0.17997107736981885,-28.056300324189756,0.0014971605145423187,-0.004138758804931787,0.0014029179245588145,,,,
6.42,-1.442494356971842,-0.1698193400843916,-28.042356170345762,0.002623838821531262,-0.00664838303846819,0.0018221139331091004,82335.16102343818,,,
6.43,-1.4440422585445363,-0.1754409288660375,-28.028106978229623,0.0011325373993435468,-0.004841354059910551,-0.0006724552653473585,,,,
6.44,-1.450522906599237,-0.17595534771190036,-28.007566955638307,0.00021208661656211013,-0.0038260005010222345,-0.000730386921781838,82291.64821810245,,,
6.45,-1.4487063027868898,-0.17257088109368793,-27.984186758440096,-0.00039595115880727816,-0.005682405363740624,-0.001459869355667467,,,,
6.46,-1.45093517665136,-0.17547145398340883,-27.96964713445687,0.002468663776903704,-0.005952029507184327,-0.0009963952518853487,82247.77921716143,,,
6.47,-1.4454765324871004,-0.17828869671386816,-27.946612718483536,0.0015471398423438864,-0.007310147275342778,0.0003086139615139337,,,,
6.48,-1.4496421897473506,-0.17415237134075495,-27.92629294407091,0.0002577726740900767,-0.003979734418583857,5.040081928484906e-05,82204.42877556675,,,
6.49,-1.4524914848541026,-0.17053688399530328,-27.91693593814974,0.001699670193822861,-0.004861846032994715,0.0008153050868795461,,,,
6.5,-1.4554595996834907,-0.17479417514527051,-27.901203265296143,0.0015103479063861478,-0.004868427671790127,-0.0005421282421840367,82160.85072417032,33.498803047848526,-99.33812611353187,1736.1429415296266
6.51,-1.4574179072921212,-0.1739428980848479,-27.881529798480102,0.0007217208327874996,-0.006115549869140382,-7.325340900240727e-05,,,,
6.5200000000000005,-1.4526753010550195,-0.17511406177440406,-27.864514178896496,0.0018084350400874617,-0.005083937474969094,-0.0010047427236765873,82117.28506561219,,,
6.53,-1.4603783852255607,-0.175119412246046,-27.845051247833506,0.0008608021970700862,-0.005817571447841107,0.0016155953669017287,,,,
6.54,-1.4532502307666406,-0.18160475764522072,-27.827615512342422,0.0013448662236467568,-0.003271500669447785,1.210354463546229e-06,82074.92530023461,,,
6.55,-1.464261970498854,-0.1730033399257249,-27.802627910016305,0.00025489763631153116,-0.00652154637943335,0.0012180368026190656,,,,
6.5600000000000005,-1.4574579104349425,-0.17679122848918383,-27.788189212517523,0.0015307175038997184,-0.0054219389069162975,-0.0012362853018053801,82030.78553364541,,,
6.57,-1.4620993711094616,-0.1707372828132463,-27.770327873625785,0.00013457735832060142,-0.004527119631364274,-0.0006081061441384588,,,,
6.58,-1.4630060039907102,-0.17281953211041476,-27.76266219593802,0.0017472101313042226,-0.003841633638976459,-0.0009337428375840636,81990.17807183547,,,
6.59,-1.4658434118869306,-0.17225120823233006,-27.74016215695422,0.0010370109392945736,-0.005020408561787013,-0.000610734487852557,,,,
6.6000000000000005,-1.4651358591134591,-0.1776975049041243,-27.7228839636752,0.0002954651289820196,-0.004265123476503423,-0.0011725040719326874,81945.71232713823,33.49876856958429,-99.33822459298456,1746.678312880822
6.61,-1.4660555943283355,-0.17688116661846498,-27.706591410488322,-0.000806775462123872,-0.004859187472691994,-0.0023923203735993527,,,,
6.62,-1.4653585296661276,-0.1753264495236845,-27.68856156902089,-3.891339368081864e-05,-0.003527054637422872,0.0016896247823777121,81902.73107152338,,,
6.63,-1.4655733366382628,-0.1727474004409482,-27.670649009227063,0.0003826021228360938,-0.006414992512511074,0.0013179974458044288,,,,
6.640000000000001,-1.470051492172298,-0.175905868794592,-27.654401063937943,-0.0001213221330150638,-0.00515132594537454,0.0008929038595503388,81860.24499077442,,,
6.65,-1.4695393302484994,-0.17615006501952274,-27.635523279838814,0.0012464590130559213,-0.004509169645394779,-0.0018969497995107718,,,,
6.66,-1.4759089199324285,-0.17645009446848597,-27.615203329124487,0.00028664556113571486,-0.004355892711925341,0.00027974634437980667,81817.82946116578,,,
6.67,-1.4692425522911001,-0.17610587210423337,-27.597956539547347,0.0017323291411726312,-0.0057071690874232524,0.000105205277863439,,,,
6.68,-1.472534939451887,-0.17665299992822572,-27.578993024491066,-0.001129355094967692,-0.0067303144388906454,9.729308736931101e-05,81774.71532998237,,,
6.69,-1.4720642272198343,-0.18039618815748165,-27.563962805806113,0.0003486093886284799,-0.0060629263941790485,0.0012657075191287411,,,,
6.7,-1.4788151085261252,-0.17601849638434378,-27.54944138249187,0.0006233178831538291,-0.005510402262082173,-0.0012164029498813787,81732.93057049716,33.49881342275613,-99.3380819489028,1770.3601823394433
6.71,-1.4739113749830437,-0.17299255492703433,-27.531893784139278,-0.00023762822125891032,-0.0058602379731696125,-0.001585079211859739,,,,
6.72,-1.4763719860200226,-0.17411929245477176,-27.519484212406006,8.898575629065876e-05,-0.0056365952817663606,0.0015717930931164325,81688.8524271366,,,
6.73,-1.482270776396655,-0.18167687171084193,-27.50155601957847,-0.0005170243678149761,-0.006555434864993523,0.000946148536460148,,,,
6.74,-1.481323540870921,-0.17993015859101244,-27.484396247261568,0.00013306310560750364,-0.005636368781929209,-0.0004138489358736529,81646.54476843037,,,
6.75,-1.484804941260139,-0.17734349319313142,-27.461301701914934,0.00039067863616852025,-0.005859035774019741,-0.0009252662677872982,,,,
6.76,-1.482891675220192,-0.1786463273314139,-27.44732795856145,-0.0006653586427123371,-0.00551949200304133,0.0011446137025071692,81604.32113816497,,,
6.7700000000000005,-1.4867224004338617,-0.18344973411531745,-27.423312327731683,0.0005297956943893973,-0.006360353176640746,0.0006695649029229742,,,,
6.78,-1.4796501896708094,-0.18001427863858505,-27.41249452042742,-0.00023092296446730826,-0.005199769867971239,0.000840292601452329,81561.84754238105,,,
6.79,-1.4876575671417014,-0.17407361647042946,-27.400730821756426,0.0006081855657570854,-0.00536793159638687,-0.001969185730640472,,,,
6.8,-1.4897411692974871,-0.17858092292111488,-27.379716097280408,0.0006617952018626955,-0.005795571162990163,0.0002622363382092579,81520.15178487096,33.49878688964875,-99.33814342155134,1790.251850988658
6.8100000000000005,-1.4882353271093924,-0.17423479180835214,-27.365413831139836,-0.00035240419616838976,-0.0050746484445577415,-0.0008063192769941644,,,,
6.82,-1.4866381679422076,-0.17821847572136088,-27.3527449248333,0.0016451848932403884,-0.004959967879359788,0.0003392833184183255,81477.63884232941,,,
6.83,-1.492129254302215,-0.17997634134004534,-27.334216537406444,0.00040729919929567417,-0.008263287586352043,0.00242987925946283,,,,
6.84,-1.4954845750890011,-0.1804185818686037,-27.31635362746612,0.0005509342050976073,-0.0069841902979278945,0.0001144666221185106,81436.30021693931,,,
6.8500000000000005,-1.4951928013129945,-0.17881551132266826,-27.29355315838842,0.0022328586368850177,-0.006513600364030694,-0.0006168091508168261,,,,
6.86,-1.4958210107325784,-0.17745326240750614,-27.27394875207738,0.0014617247714796455,-0.00675824146350489,0.00010156936865460817,81394.0329401473,,,
6.87,-1.4959351955440106,-0.1820483607930813,-27.26549218359885,-0.0001568195310352416,-0.006132639777083721,-0.0013367827943711718,,,,
6.88,-1.4953837465039552,-0.1791287635626112,-27.24689759441072,0.0005726341760833534,-0.006559987297580218,0.002795547157426357,81353.00686385462,,,
6.890000000000001,-1.4951786234497135,-0.17727015017045347,-27.229473309467817,-0.0007560625667116153,-0.005089417510157313,-0.00082042776536032,,,,
6.9,-1.5004965291649717,-0.18151319952773512,-27.217388418873536,0.0014295741617069272,-0.0058818776706065275,-0.00044018368217121966,81310.32295607052,33.498785814731775,-99.33818778416583,1823.7875324412207
6.91,-1.4959924929608222,-0.18013874500009577,-27.199339476371854,0.00027024194608339685,-0.006390715652119318,0.0012026001559340943,,,,
6.92,-1.4973611774166509,-0.1760093980912363,-27.186138687900183,-0.0006325767054470555,-0.0036838705448223557,0.0009067896547820813,81269.52759805092,,,
6.93,-1.499977330970322,-0.18082655126821587,-27.166519141787564,0.0007304053449966177,-0.006154241795921603,-0.0002859173699960411,,,,
6.94,-1.500390011235464,-0.17848614770324142,-27.16064470891604,0.0024283388362356375,-0.005152135266736557,0.0007034998105767444,81229.24876150978,,,
6.95,-1.5036678517245887,-0.17677579232067658,-27.14246385583759,0.0023654951974624973,-0.0052295434288981155,-0.0005615022901396054,,,,
6.96,-1.5059070217651904,-0.17775970150443174,-27.127593991973743,0.0004348618889301899,-0.00517408332437794,0.000569117081316027,81185.95516811986,,,
6.97,-1.5094647819840652,-0.18109898293442403,-27.111399545931786,0.0011035536952483235,-0.008610875933168224,-0.0006962850203691816,,,,
6.98,-1.5070021557986084,-0.1775646687947114,-27.09538881885362,0.00028685726531305506,-0.005164715281095056,-0.0004998606401941696,81146.34927162118,,,
6.99,-1.5068845386369418,-0.17758327738062343,-27.083572890435732,-9.379549021721538e-06,-0.007350592693376564,0.0008245329883232218,,,,
7.0,-1.510612179126708,-0.1793764087028336,-27.0555138460643,0.0008812146918100604,-0.007579808615955816,-0.0005966134485683321,81104.50216537254,33.49881027197989,-99.33819452362334,1846.5719483575767
7.01,-1.5103636070947355,-0.18503880229404324,-27.03522071792398,0.002613385654877116,-0.005792871616258769,-0.00042225889220305705,,,,
7.0200000000000005,-1.5117012109450985,-0.17622189448503875,-27.030671649940185,0.0009544190604674563,-0.0060557238054699215,0.0012501661947937285,81063.22482823412,,,
7.03,-1.515630618822955,-0.17846506596612935,-27.007584359678326,0.0009027787893722645,-0.005185178820703826,-0.0008359430916938545,,,,
7.04,-1.5158176021620429,-0.18252731630168714,-26.999262735219865,0.0011560316737879467,-0.005418427696512917,0.00048701894418641284,81022.21967525857,,,
7.05,-1.5123819107852368,-0.1783226245479603,-26.982903091080555,-0.0005803732786206653,-0.006220449109654274,-0.0004573891997046961,,,,
7.0600000000000005,-1.5136486252944572,-0.18205500321434173,-26.969690377854732,0.0018549660568057584,-0.0064089858887604505,0.002202158938444848,80981.16749643859,,,
7.07,-1.518266086551533,-0.17783198472653072,-26.950338748776904,-0.0003086073879089345,-0.006112004477818242,-0.0006540900494563536,,,,
7.08,-1.5140350907321043,-0.18720607958948698,-26.93311904691626,0.002229029889601843,-0.007263459190051319,0.0010069313305645783,80940.45063466828,,,
7.09,-1.5261004136673595,-0.1780766500993818,-26.917886191005735,0.0030342431061988495,-0.006553516409831296,-0.00017937581780976667,,,,
7.1000000000000005,-1.522688967682008,-0.17912563971825665,-26.9040248335568,-0.0014517275983790333,-0.004172723897785384,0.0005924121218028137,80901.13654203418,33.498794994842584,-99.33817753715944,1854.6816187113893
7.11,-1.5226867172480938,-0.18075155076889884,-26.884350865185077,0.0018644363705169376,-0.004142468543307672,0.0010996884010646894,,,,
7.12,-1.5236237150218956,-0.17537109327700967,-26.872283615445376,-0.000470877752680471,-0.00746388820848486,0.00040081769900000803,80857.86323401637,,,
7.13,-1.5202403276801222,-0.18062443410725904,-26.85418931515526,0.0013975379017691673,-0.005883051003707282,0.001161875809483071,,,,
7.140000000000001,-1.5276228550629312,-0.18456088864993112,-26.840852438062935,-2.888338470093902e-05,-0.006076900079824122,0.0015523273412363047,80818.61224844532,,,
7.15,-1.520798447294613,-0.17966056947032297,-26.831401687057408,0.00047049557642094085,-0.004745269609347049,0.00011427116245147605,,,,
7.16,-1.5268327476510708,-0.1805267532268939,-26.81855890912514,0.0022781637060796966,-0.005714118644877594,-0.0008579967041976544,80777.58579993088,,,
7.17,-1.5312489152455209,-0.18098394449573044,-26.794560163668816,0.0007385050702525943,-0.005598134008107867,0.00011743416836117412,,,,
7.18,-1.5273927443600503,-0.18178055616154282,-26.78463345227769,-0.0017259825142971418,-0.005920635503822038,-0.0005321698607650106,80737.35684551252,,,
7.19,-1.5296490132714564,-0.18094204127888341,-26.775441623986676,0.001041292992023408,-0.0029703137764974523,0.0007144064401457688,,,,
7.2,-1.535198724301656,-0.18232884112074152,-26.75368907483583,0.0010917838425560417,-0.004510935592902992,0.0006937430786497519,80695.90160039706,33.498777687673325,-99.33819582862088,1887.2427360503743
7.21,-1.5314302856029511,-0.1801805551111245,-26.74526754101376,0.00027704886157783204,-0.005038671093635095,0.0009218020084316186,,,,
7.22,-1.5363448850130672,-0.183606122397328,-26.72519330773534,0.0003111854538311128,-0.0070181781349436655,0.0015886916508784776,80655.71311525628,,,
7.23,-1.5351860857462405,-0.17961268184776705,-26.71371622517002,-0.0007867924894093443,-0.005267548144283419,-0.0013326999985594785,,,,
7.24,-1.5422533421326807,-0.1875170925172671,-26.69176356170169,0.0007434205780860521,-0.007631460801860862,0.00017280487076825487,80617.2637922297,,,
7.25,-1.5374424321302103,-0.18066570305718463,-26.675207922513636,0.00034572032245865287,-0.0056635399529606075,-0.0011605665607152583,,,,
7.26,-1.5391565043784161,-0.18189505343453805,-26.661076786541408,0.001501140104408103,-0.006538036514079596,-0.001771263921897898,80575.52049028501,,,
7.2700000000000005,-1.5459464070837774,-0.18334584023147787,-26.64406781191286,0.0006027470077066469,-0.0048380467102345235,-0.0001845474279687467,,,,
7.28,-1.5466558784910018,-0.1829037885864954,-26.627914486318225,0.0010549015224456553,-0.0061571061809879485,-0.0013670226242753407,80536.31566358618,,,
7.29,-1.5444751878361735,-0.18267788476375324,-26.617132962970032,-6.732619915307287e-05,-0.006474330410706691,9.529240156374964e-05,,,,
7.3,-1.5520037638650204,-0.1830861037711351,-26.609570332678352,0.0010017512850572317,-0.004307013930538173,0.0011649364992286475,80496.8344978545,33.49878291174109,-99.338185056761,1901.8596699653654
7.3100000000000005,-1.5457591368834704,-0.18695880419652983,-26.590683204762183,0.0015905664472111534,-0.005054935262498175,0.000912404046108353,,,,
7.32,-1.5448124319926688,-0.18139957933617093,-26.578642350454935,0.0014581995644979723,-0.007060360776003529,-0.0006062961808812307,80456.3439553866,,,
7.33,-1.5469783195526632,-0.18488174070486604,-26.562465679447747,0.001850633479837904,-0.006399172912743897,0.00017441194275872755,,,,
7.34,-1.5511987530021025,-0.18318415630044269,-26.546751649346792,0.0016383325447240757,-0.006226703363218686,-0.0006571067506452095,80417.57236772605,,,
7.3500000000000005,-1.5543961058579403,-0.18576759843472904,-26.53345215115931,-0.0009760535850589344,-0.005401508539522196,-0.0006742322430670666,,,,
7.36,-1.5530415597770761,-0.18100052578747483,-26.516684569673156,0.0028115623052785447,-0.0062742723266063765,0.0005089460806505961,80376.72259372861,,,
7.37,-1.5532780680729135,-0.18566479519065704,-26.49091699823599,-0.002051367840897575,-0.004163035910659711,-0.0011387536403967412,,,,
7.38,-1.5523264959304175,-0.18219855360622947,-26.4837362033503,0.0018133534119090479,-0.006860007345997473,-0.0001695783884056862,80337.98323266735,,,
7.390000000000001,-1.5549098664892618,-0.18857208122792254,-26.46485504164607,0.0006475669524385438,-0.005541267976063182,-0.00022658469419849561,,,,
7.4,-1.5548924734950438,-0.1830240454760538,-26.456131055417195,0.0007725467941454135,-0.006858668746284089,-0.000516309834149623,80298.18086016852,33.49885564464687,-99.33819703192027,1915.324968932353
7.41,-1.555797447148055,-0.18339668413573146,-26.44157759693929,0.0008542981672336662,-0.006963092356756269,-0.00028346227615869336,,,,
7.42,-1.5585881426478272,-0.18693887608811746,-26.42720551036637,-0.001585032559135429,-0.006281049169853657,0.0003531174298480128,80257.85382695,,,
7.43,-1.5592495507704192,-0.1876881188263356,-26.41202821202629,0.0005841897805362866,-0.005077592763854559,-0.0008247557047440942,,,,
7.44,-1.561335471227531,-0.18441197250188487,-26.40448290570775,0.001361487164213358,-0.00640815826935953,0.00022000195777742272,80218.2731051727,,,
7.45,-1.5608352184201213,-0.185741575848514,-26.393485023183047,-0.0009755836187115562,-0.00647639298012438,0.001736801863859933,,,,
7.46,-1.563041699420658,-0.18833002416112152,-26.376691976688353,0.0016459158082706795,-0.006620690417178328,0.0009337537030147428,80180.53585052385,,,
7.47,-1.5627754404295835,-0.1832387988917543,-26.36241497806833,-0.0009790531332505691,-0.006591889348986141,-0.0003633402245025,,,,
7.48,-1.5615730890623145,-0.18843207239475857,-26.347488523060598,0.0001561415475084734,-0.006211534209123674,-0.000620858058932505,80138.59515138157,,,
7.49,-1.5734155651130532,-0.18455428176945599,-26.33834037975439,0.0012347063248307252,-0.007805252447207043,-0.00010302215346360632,,,,
7.5,-1.565432657957816,-0.18485061149529888,-26.3174117192453,-0.0009874481615257929,-0.006241051274762149,-0.001275355850925505,80101.164949894,33.49881302485464,-99.33821873327264,1944.2834182262084
7.51,-1.5697910304805396,-0.18676695971065896,-26.302119434028075,-0.001182653001062922,-0.005869512304420635,-0.0013997051948150116,,,,
7.5200000000000005,-1.57057002810277,-0.1825488254761274,-26.286251482304856,-0.0009679666774777241,-0.006589442703431121,-0.00029468335694415616,80062.54826729011,,,
7.53,-1.572558692826789,-0.1874985017104509,-26.270849387340995,0.0010330230562221113,-0.007665172833326544,0.0008815914125925811,,,,
7.54,-1.5725417787462752,-0.18560745043034707,-26.258039146814408,0.0023557648707323814,-0.00835042005228899,0.0001044575826553773,80023.80407860377,,,
7.55,-1.574106886471787,-0.17918372662980914,-26.24600464647161,0.0010543509079686075,-0.006821955323114727,-0.0008606447916448748,,,,
7.5600000000000005,-1.572078251939445,-0.1885714498060443,-26.231112782390987,0.0004929213082219463,-0.004323310878387194,-0.0004533667170719655,79985.87996787818,,,
7.57,-1.5760278015486862,-0.18336954692761626,-26.22431799327958,0.0020452222738040126,-0.005613546567763879,-3.396674536991324e-05,,,,
7.58,-1.5764498789614072,-0.1866792641906805,-26.209813291964196,0.0012133597472877887,-0.005116132970178847,0.0014209802974485502,79945.0950802952,,,
7.59,-1.578246978644216,-0.1876853229166782,-26.187838880296596,0.0007980736025667603,-0.006967739581072951,-0.00033295164402546886,,,,
7.6000000000000005,-1.5790780487960896,-0.18984211005853036,-26.17307045232085,0.00048050096392171575,-0.006879251337182801,0.00048786804381305553,79906.21812192883,33.498768703525286,-99.33822419939932,1967.3985009814025
7.61,-1.5820623893067245,-0.19088643379136866,-26.15439929174209,0.0013247487992021467,-0.005575797270294472,-0.001156529055500925,,,,
7.62,-1.5821890646843124,-0.19195328797244857,-26.13692982599524,0.00022933593459745997,-0.006350057970616488,-0.00015650527516185227,79867.63982708463,,,
7.63,-1.5834605657923275,-0.1886147042982225,-26.12865630305661,0.0019741018221450433,-0.006336034695018967,6.291960651267019e-05,,,,
7.640000000000001,-1.5849183019876882,-0.18532464953947947,-26.115722679713397,0.0015265906288943615,-0.006165812186259266,-0.001031776249986689,79829.70064567131,,,
7.65,-1.5941103809045882,-0.18668094975798716,-26.101311436902417,0.0008517468005136905,-0.005527368562119791,0.00042148785208749053,,,,
7.66,-1.5848028868009134,-0.18671060256001393,-26.089620656094006,0.0007439895697778024,-0.006463194802390101,0.0015017005671190118,79790.5068318257,,,
7.67,-1.5922924922353288,-0.1882997082840601,-26.080048226269703,0.0009235995218225858,-0.00471193472180583,0.0003005729316455407,,,,
7.68,-1.5871639095221417,-0.18846706331389002,-26.065021490115598,0.0006805927765481474,-0.005484666978908872,-0.0008838683225217523,79752.23594724503,,,
7.69,-1.586059366105073,-0.18693788059959668,-26.059236586072323,0.0023824872749028374,-0.005742168792761326,-0.0014861803272992332,,,,
7.7,-1.5899267740091916,-0.18829164334776707,-26.044402595350327,-0.000851714866386871,-0.006448500779254656,0.0018203376672733679,79713.56719744604,33.49880796176313,-99.33818474772896,1975.9089361376575
7.71,-1.599945971050832,-0.1886927717022121,-26.02783873415319,0.0021083098085445625,-0.007854371371060568,0.0008800739086074655,,,,
7.72,-1.5949054114371293,-0.18886664402796605,-26.022509374914243,0.001119328024544689,-0.007030471006711162,-3.282877050029301e-06,79674.39443460737,,,
7.73,-1.59058954411581,-0.18712144967572988,-26.00781889780687,0.0001589388430410561,-0.008158186410814396,-0.0008325562429785225,,,,
7.74,-1.5971089475326894,-0.19064818084700125,-25.989294801145377,-0.0013561424493351878,-0.0062129722601897445,-0.0015522270366956463,79637.8272225761,,,
7.75,-1.5986950532693072,-0.18924018465148992,-25.973139724016974,0.0012034697355883185,-0.0051986252157479144,-0.00066715934442879,,,,
7.76,-1.6009378835238028,-0.1902320795407241,-25.962256376799314,0.0015807719991879706,-0.005760119207123792,0.001695913816515478,79599.53670304606,,,
7.7700000000000005,-1.595822409099887,-0.190942168552271,-25.946548160766195,0.0012567233683346826,-0.006705990440790621,-0.0009770198279936946,,,,
7.78,-1.6066817094681451,-0.18853807644289006,-25.933553871750632,0.000527225216431017,-0.006265885133798409,0.0005644025135369426,79561.72839121657,,,
7.79,-1.6040575675356332,-0.19267475225949712,-25.916593416153056,0.002239187542488496,-0.0077739126750701205,-0.0009720966714276097,,,,
7.8,-1.6057949652992545,-0.18957957588233507,-25.901642763666015,-0.00012098112858893099,-0.0072521858567604165,0.00014442410011372887,79522.832024144,33.498808517134485,-99.33825091669742,1993.6671901995014
7.8100000000000005,-1.6075133068390393,-0.18884085265877532,-25.895024135571333,0.0023131521407218306,-0.007592863988982715,0.00033630986735030515,,,,
7.82,-1.6066604600247136,-0.1894624726187893,-25.884968913020145,0.0010646693986906795,-0.006233981678079547,0.0016632234825071988,79484.99838460349,,,
7.83,-1.6085817571756338,-0.18687266613854436,-25.87613033832032,0.0003004891569127644,-0.005735818837297032,2.072474499235938e-05,,,,
7.84,-1.6117762843459815,-0.18746906394601043,-25.8578342559401,0.0016710872929090715,-0.006457040638924866,-0.0014382701579983002,79447.99264981759,,,
7.8500000000000005,-1.610728882412192,-0.18891676689546893,-25.845787026817877,0.0012225078206423848,-0.005642248989552026,-0.0009274930755992075,,,,
7.86,-1.6107813258667425,-0.19254261085319826,-25.837944349895295,0.0008653568363137176,-0.007041230556703979,-0.0005582042429779799,79409.19537823676,,,
7.87,-1.6112554448997842,-0.19179832688723397,-25.823193113713202,0.0017438447997332406,-0.0066236834004794925,-0.00033339345011663556,,,,
7.88,-1.6177053600602798,-0.18963776757874906,-25.808062483106305,0.001018193116065225,-0.0064244645325425235,-0.0011674289060273093,79372.97360917012,,,
7.890000000000001,-1.6173496374524454,-0.19421356984955332,-25.789974064432215,-0.00036703338570112393,-0.007212745917020687,0.0002562357590010722,,,,
7.9,-1.616166886414053,-0.1909013418963856,-25.780885419518505,-0.00042432783755814345,-0.006441974464809892,-0.0012130749753773364,79334.83372437568,33.49883861879659,-99.3382001871001,2020.5719963646195
7.91,-1.6179665548365,-0.19184900224631687,-25.766251442035436,0.00178960774498849,-0.00626904808493254,0.001503010089389549,,,,
7.92,-1.6249171928655406,-0.19094857140604457,-25.750947368814128,-0.0004290368054322765,-0.005747523473197019,-0.0018859753854495993,79298.07678001688,,,
7.930000000000001,-1.6188063636651735,-0.1940954158029561,-25.740685131814722,0.0011012696502108318,-0.005090969311450333,-0.0004223325593909292,,,,
7.94,-1.623454688609168,-0.19171398240928872,-25.725957866114484,0.0018042914931882612,-0.007076550883286465,0.0011440766522512525,79261.65587798516,,,
