time_s,accelerometer_x,accelerometer_y,accelerometer_z,gyroscope_x,gyroscope_y,gyroscope_z,barometer_v1,gnss_x,gnss_y,gnss_z
0.0,-0.003550468865232177,-0.0014336025361227495,-9.77883448858105,-0.00021491391390289816,1.670721644211595e-05,0.0007605228360373858,96453.17301019252,33.49862719285791,-99.33765221767409,420.74689418583944
0.01,-0.0021298993622990174,-0.0036538614995574527,16.57267103438941,0.0015417797398293337,0.0010101727423169654,-0.00032665132924467293,,,,
0.02,-0.0024146609785321935,-0.0015718380066418922,30.076454639027766,0.0008864382146825989,-0.0003121162712976793,-0.0011418612615728915,96454.92847128023,,,
0.03,0.0016509785805424017,-0.0012135306057663609,43.558820384492115,-0.00023534258581641476,-9.02065558793093e-05,-0.0011603296639143763,,,,
0.04,0.005205998556438011,-0.0008204278001463041,57.054346199823165,0.0007492491217699608,-0.0018262283348119753,-0.0019300991262794448,96453.63172709532,,,
0.05,-0.0012021824143954043,0.0035274791281855976,68.56550620911786,0.00028745889658882763,-0.0007101478438506579,0.0009553319758771019,,,,
0.06,-0.005160809128361731,0.006583828333389675,80.08937005981804,-4.64967129940364e-05,-0.0005090534327081975,0.0006975164956773629,96453.42160580412,,,
0.07,-0.0005737786415123816,-0.00024295406542703066,83.50729588619794,-0.00019335138901219263,-0.0004010537995284518,5.99746892981807e-05,,,,
0.08,-0.0016344833747478054,-0.00025375425176082635,86.852471119335,-0.0009493269633410321,-0.0011062538018457601,0.0016942204035906919,96453.28101935906,,,
0.09,-0.000405466344029928,-0.0034878436253189945,86.28627617259198,-0.00021178560302857893,0.0003049188834130981,0.0012113915960647928,,,,
0.1,0.0006864582348592095,-0.0012573656196516478,85.67908998788148,-0.00022023960183282132,0.00011077188110764583,7.117044981315773e-05,96450.2998579325,33.49864345066035,-99.3375957635321,411.39734800583375
0.11,0.004263145382558888,0.001403283539973521,85.18275398711401,0.0005976393925383175,0.0002585428474513112,-0.0008767391135897203,,,,
0.12,-0.0021045682789738165,3.220628500048012e-05,84.6858264714388,-0.0008381378689311116,0.0005255781513918323,0.0001841474933524954,96449.68202822698,,,
0.13,-0.00026381231911887584,0.0011273893118993157,84.40903532920682,-0.00020188051237130707,0.0002819219490644992,-0.000860978570158223,,,,
0.14,0.0004627197145030902,0.00043264132352339486,84.1315358033338,-2.632583744838154e-05,-0.0015785127517017644,0.00023904308390692062,96446.72152593841,,,
0.15,-0.0025943181510796245,8.701525624151209e-05,84.13323045604352,-0.0012040818309654252,0.0012674614081554676,0.0007896410295950555,,,,
0.16,0.0009769828932150156,-0.001029224796131761,84.13746594062602,0.00013517424428610605,-0.00050058706666894,-8.227510582378805e-05,96444.16542026808,,,
0.17,0.0028878701387489995,-0.002791728641276636,84.25798833365664,6.904663419489944e-05,-0.0016980672309857032,0.0006855270844649503,,,,
0.18,-0.0003941967042870205,-0.0016864446440229717,84.39020091178068,-0.00011306980621638263,-0.001695668002510702,0.000529786447911739,96441.24059498454,,,
0.19,-0.0028367051267653124,0.00440200511539963,84.36428551506711,0.0005633667251748507,-0.0008275014144531926,-0.0011748830724000515,,,,
0.2,0.0060938980817161585,0.0021927103103821493,84.34982716060512,0.001633391981213872,-0.0008677770691395451,-0.0005149130319550824,96438.06098768841,33.498647454813565,-99.33759870490412,424.159631815448
0.21,-0.0008403022476876047,-1.3929733441609673e-05,84.3802318029392,-0.0008961265190376438,0.001013826395368381,0.001157657143322054,,,,
0.22,0.003730567414351368,-0.004245008728298906,84.41433803901764,-0.001462190578622215,0.0008131411537695338,-0.0009114815705605156,96433.65146667947,,,
0.23,0.001968873381226469,-0.002238023707330465,84.45832811199708,-0.001225691664933395,0.0013142414273282698,-0.0013937331671241497,,,,
0.24,-0.0038649602793771115,-0.0037046918769821557,84.5073421459159,0.00012680654321619434,-0.00176930248878483,0.0009275701076937424,96429.0229886747,,,
0.25,-0.0026570242152727866,-0.0010325873702642292,84.53905267015794,-2.6567455836338275e-05,0.0006052049824641587,0.0012646063747288028,,,,
0.26,-0.003952263974506052,0.0025280811100799046,84.58052105533926,0.0005358062054525482,0.001079256271982601,-2.8750566303664973e-05,96423.6947183512,,,
0.27,0.00047168438752457395,0.008017826231309597,84.735694327486,0.002061280790334756,4.265234421678068e-05,-0.0003331998298892238,,,,
0.28,0.0025722537631675648,0.004115965500550492,84.8756002790351,3.7112841346500776e-05,-0.0006161372432138918,0.00021374880390937924,96419.51375031567,,,
0.29,0.006059516585736716,-0.0019013067075256912,85.02227401279718,0.0005806626601011572,-0.0006923928809096501,-0.0014681341812674263,,,,
0.3,0.0006117992338848608,-0.0036073661989499176,85.17554893012515,-0.0011779194960579505,-0.00151151248565748,0.00018869555119324963,96413.29754630344,33.49860636080242,-99.3376236231296,423.8707808567173
0.31,-0.00014959383415813853,-0.0021710175924002715,85.32168015521178,-0.00017592092744971458,0.00041410391213822674,0.0010171437788518832,,,,
0.32,-0.0026111800791509664,0.0004657174295448153,85.46552266780239,0.0011651655615483427,-0.0004828543757112024,0.0014741329938468422,96406.02181079709,,,
0.33,0.0029569180988625507,-0.0010838790709626622,85.6060251659977,0.0012689353377256882,0.001178831027368721,-0.0006030766721037522,,,,
0.34,-0.00010374769454201271,0.0029435454489841026,85.7512723610992,-0.0005695759788382248,0.0004186605934492431,-0.0009904166952065066,96399.88237698123,,,
0.35000000000000003,0.002398392615388065,-0.0064549912315069735,85.8553977135195,-0.0008810665785588085,-7.041220934561906e-05,-0.0013517871168053446,,,,
0.36,0.0020301920918869474,0.003500652842952158,85.9621313247414,0.00014896749051627616,0.0015881264287542077,0.0006647508039189008,96394.01758251015,,,
0.37,0.004120428144521139,0.0044070285675401845,86.09124023595395,0.0009402168808695857,0.0009244864096617404,0.0013003865714531853,,,,
0.38,0.0028091899722873194,0.0013955807264611376,86.21903565127435,-4.144578345730539e-06,0.0014791837681590128,-0.00034779565330854325,96386.63820984568,,,
0.39,0.004650388673488769,0.0010415588200365189,86.36342672053046,-0.0022915152439091304,0.00012040486485020384,-0.0008224144904767223,,,,
0.4,0.005975548545233482,0.006371608402762756,86.51407284421347,0.0014587047255670846,0.00016919331841265358,0.0008743360913435071,96378.35846115915,33.49860367297224,-99.33755698586909,417.9985290773379
0.41000000000000003,0.006024147351520633,-0.0023643006322343315,86.85294600413916,-0.0004780609254326361,0.001200520067095165,0.00044443355922154276,,,,
0.42,-0.0005280015423331358,-0.0018630728641022265,87.19340535250295,-0.00040851070008744207,0.0009020743563246283,0.0015859948150747994,96369.73680022554,,,
0.43,-0.009910829755549959,-0.0029857940927847455,87.32412183543543,0.00017353383395726096,-0.0010319605985303674,0.0006089657537106196,,,,
0.44,0.005289089019114177,-0.0017197460582455979,87.4403264683042,0.00015998387498030074,-0.0004604685624015131,-0.0019042066747745176,96360.01288801129,,,
0.45,-0.0007171167205041234,0.0031751281606038,87.61056815685644,0.0005264662927796129,-0.0011088096276494054,-0.002405145730905028,,,,
0.46,-0.0040647575225962775,0.00011631254467707824,87.779034419203,-4.5277541632699236e-05,0.0013969616787040556,-0.0010953395469820992,96352.2246385206,,,
0.47000000000000003,0.00027866451609723984,0.0008954466487153199,87.88944527358659,4.945735327889614e-05,-2.6439637834830707e-05,0.00043772750557307554,,,,
0.48,0.004607707714333992,0.00514944602622658,87.9909848433956,0.0001351170474323366,0.0013067234155897407,0.0007454479789857122,96340.92849951384,,,
0.49,0.002358305272276962,-0.00010266648258270102,87.9361597571452,0.00028736127641445375,0.0006968288116983476,0.0014731739097331147,,,,
0.5,0.00050060783749361,0.0008852079745706455,87.86568229695958,0.0006529494629033721,0.0008484955968384665,-8.952448866592248e-05,96332.0235906212,33.49861422691037,-99.33757378148142,419.35242956366517
0.51,0.0045860309642763815,0.0011895193533152362,88.06604784796849,-0.0004504812856807014,-0.0006562313361119382,0.0011714213114820099,,,,
0.52,-0.0019415820883849745,-0.004320602530520947,88.29337876867491,-0.0006168217151310484,-0.0008180879001156742,0.0010186948461252418,96320.31702156189,,,
0.53,-0.0007387879112819253,0.00035227938887221144,88.50380238884144,0.0010687019869183025,-0.00037544925476612,-0.0018493813588043423,,,,
0.54,0.003802030392050139,-0.002849843573213694,88.70717428250329,0.0011568018296050431,0.00052847629362884,-6.708611621265606e-05,96309.46797892266,,,
0.55,-0.002549045499242368,-0.0006658193426328831,88.94824808291675,-0.0013719104458320204,-0.00041779616237921143,0.00036311191373409224,,,,
0.56,-0.0011071714921708925,0.0011643366112835355,89.18754973999877,-0.0010587786933745952,-0.0013495248391962337,-4.3635738636573304e-05,96297.3520294123,,,
0.5700000000000001,-0.001366554591007174,-0.0021087257786462188,89.40128938950434,0.0005987484734209111,-0.0008851708670018647,0.0009196536352886931,,,,
0.58,0.0004566171889153598,-0.00207989117954612,89.6008329624782,0.0007926899609450673,-0.0005249219023627774,0.0014628348915529431,96284.93459877103,,,
0.59,0.004584251353906806,-0.00012764722613001556,89.76706891946489,-0.0012595699146238325,-0.000505162619248346,0.0004915456601929682,,,,
0.6,-0.0013469019423660382,0.0016762870925445751,89.92227619846705,-0.0008146808442949122,0.0006065812551127098,0.001513324044073925,96272.71323564566,33.498603677451,-99.3375972673661,431.30667171687844
0.61,-0.00043743496153256396,-0.0025839678059085564,90.06971581800188,0.00042917158517158534,-0.00012375949555394554,0.00035511982881291087,,,,
0.62,-0.0025533020882158464,0.0023834810378570983,90.21302445450164,-0.0010436873202548257,0.0011777565011073104,0.0009425990786305474,96261.75597076562,,,
0.63,0.0038369575436134644,0.003854470338187643,90.39458542819695,-0.00010919409390023101,-0.0005716972191520202,-0.00012972087183578645,,,,
0.64,0.0016151889457398645,-0.006358721920307983,90.57759397172357,0.0016735953098751214,0.0009790487869895752,0.0005299965484291503,96246.43889497574,,,
0.65,0.0059302291983107215,-0.0009141819380623224,90.82658688507367,0.0007157431156165214,0.00028903891048147193,0.00014775441504515864,,,,
0.66,-0.001550045221770709,-0.0030950680743904346,91.0963589416291,-0.00014253504587702522,0.0005638502201019915,0.0010128015478314495,96232.87649303224,,,
0.67,-0.002442114632217207,-0.004950378710434353,91.3844711532789,0.00013294740881758806,0.000520153311427354,0.0008927598870928039,,,,
0.68,0.00025655648817282716,0.0012471190157633712,91.66574132174205,-0.00021335196147544228,0.0013516686071900546,-0.0014449452121220272,96218.05786932966,,,
0.6900000000000001,0.0014434056315683278,-0.0022914386586417364,91.99835610997498,-0.0012801123894944386,-0.0010970557763933268,0.0006050887330516978,,,,
0.7000000000000001,0.005717819688093756,-0.00015060898746451228,92.34033289647179,-1.5808763091033e-05,0.001575826634603615,-0.00016826621192270403,96204.80686948937,33.4986358128267,-99.33763492738883,449.99032402685094
0.71,-0.0022579134199202724,0.0009962656384558857,92.70945025745871,-0.0005353707395350844,-0.0013887147937361021,-0.0007634174525589061,,,,
0.72,-0.0030046241179138263,0.0015926543878136369,93.06963307772646,0.0007948958605129774,0.0001249835035816004,-0.0005464968830805407,96187.51372311683,,,
0.73,-0.001215897354799647,0.0013344137336623284,93.46627363137837,0.0003499461071952102,0.0012368214457516887,-0.0001559402977223563,,,,
0.74,-0.003393198498558982,-0.0029032666619308433,93.86446515941782,0.0009020587871451316,0.0007349096148871094,0.0010059646116863956,96173.74701473462,,,
0.75,-0.0034926127627670166,-0.007740475443356904,94.2709325714106,4.1094921917904413e-05,-6.480255717366192e-05,-0.000986938299366696,,,,
0.76,0.0020180873359543247,0.005215434030761775,94.69520820364976,0.0013664247017893397,0.00013000375996677677,-0.00032048120716009513,96155.22836226066,,,
0.77,0.0019912372556662433,-0.003149224187987426,95.10870892685016,0.0008234759973629774,-0.00039980486634824653,0.00024098681390536444,,,,
0.78,-0.004029424861335715,-0.001501358658487186,95.52912202101886,-0.0019716378960710954,-0.0021736965473031816,0.001164688031607223,96140.1368092509,,,
0.79,0.0037652646958856997,-0.002337673609586379,95.92138976206077,-0.00097548149546053,0.0011597389490295047,-0.0010785892495152136,,,,
0.8,0.001784699745320084,0.00031740922007259605,96.3179604423699,-0.00024116705416559012,0.0012529100738900391,-0.0009506151091382793,96123.14672259502,33.49860669992674,-99.33761069869647,441.84929138307774
0.81,0.0057751752270973475,-0.0011153203580068767,96.66269726653351,0.003208184696523293,0.0002985795783215922,-0.0002133826388551815,,,,
0.8200000000000001,-0.0036801009660566105,0.006030999869450826,97.00664331309565,0.0009137326972181001,-0.0005398619222222483,-0.00044486938935231555,96103.81148416342,,,
0.8300000000000001,0.0009583538956605692,-0.005092187007872712,97.29294012565302,0.000263593412423858,-0.0005620861685985727,0.00021140186668881352,,,,
0.84,-4.175018659122979e-05,0.0022523715541274444,97.57809571055627,-0.0005531221612860637,0.0006364061771078229,-0.00026971461511103616,96085.31657623724,,,
0.85,-0.002019962913815172,-0.0006658794135002785,97.82712024770902,0.0015952150167946636,0.00013540710172894985,-0.00016305437223968335,,,,
0.86,0.0011003827950881312,-0.0006654313461935398,98.07283799718017,-6.530225865374869e-07,-0.0001829014116612047,0.0006602379817766741,96068.16138329999,,,
0.87,0.0016564881110520534,-0.0019585044503348877,98.29082212541,0.0005377026275713493,0.0008040651960053664,0.0019112382285054093,,,,
0.88,-0.00017110545257544412,-0.0021910237540761516,98.50666661936435,-0.000572767431601521,-0.000700708846151429,0.00031003227088482424,96048.78598994404,,,
0.89,-0.00412641226527819,7.847336071016927e-05,98.72997837732038,-0.00033001290466220064,0.001282360550333201,-0.0005229122536173755,,,,
0.9,0.00740570836094264,0.0032133412433279986,98.94506969970031,0.000805912437112787,-0.0008831717921792547,0.0016587153739962613,96028.43471875554,33.49863512692348,-99.33765367386185,453.16965923802763
0.91,0.0008610241491191519,-2.993603031131306e-05,99.18336115890004,0.0003181739363176059,-8.984495817185829e-05,0.0008637267856808872,,,,
0.92,0.0016424062061074047,-0.0008695200029403083,99.41250255496904,0.00026592909333285174,-0.0012555963321503882,0.0001966784122041376,96008.86542983878,,,
0.93,0.003019540344277727,-0.0036862882250881615,99.62589718224983,-0.0014605428318758913,-0.00011510401784501887,-5.804927074830414e-05,,,,
0.9400000000000001,-0.003593504465783966,-0.0006807127089395091,99.83896837286457,0.00029844019276926645,-5.744607765479934e-05,0.002448733589379981,95986.49599903876,,,
0.9500000000000001,-0.0002518398668446203,-0.00010019147234885278,100.03044374556717,-0.0013182637643123591,0.0007407610161476897,-0.001676620225637597,,,,
0.96,-0.00101538970153272,-0.001062648759069494,100.21615965302855,-0.001432315763759848,0.001629037616091859,-0.000419149501269688,95965.99716403412,,,
0.97,-0.0019909750028287423,-0.0011673774574592222,100.36140951532452,-0.0009262320042538318,-0.001307195665629882,-0.0008719615234678061,,,,
0.98,0.0024838696643206593,0.002412834680859459,100.50302974733741,-0.0003130363351306488,0.001131268808277485,0.0008889383474281052,95944.73590658983,,,
0.99,0.002808186219741548,0.002695024173899723,100.5832906277983,-0.0008956501108182595,-0.0010161935489286455,0.0013556111726570502,,,,
1.0,0.003181173284468722,-0.002372719140477484,100.66591924707521,-0.0011505065692044706,-0.0002965819441908719,-0.0010586353923489654,95923.12222644567,33.49861119392924,-99.33763855679275,462.3232965533801
1.01,0.0063108332158111295,-0.0049209727689418364,100.71531509957886,0.001136870530760209,0.0010631179632093494,0.0002577125252461871,,,,
1.02,-0.0007408017338777743,0.001425322970847351,100.75839859477719,2.2828218861726935e-05,-0.000499751142539446,-0.00011922588753028119,95898.82784657137,,,
1.03,0.007571755358211118,-0.000646620556277614,100.80739657492174,-0.0007176468464117558,-4.721814303593455e-05,-0.0012076175980993162,,,,
1.04,-0.0006913686295889459,-0.003092810220045945,100.85741836445636,-0.0006762290490470878,-0.0003407177171548523,0.0020376396447956513,95877.73273605247,,,
1.05,0.002256247865595707,-0.0035113683307830025,100.92204574724393,0.0017302600409297335,0.000999252874924402,0.0009168075459289585,,,,
1.06,-0.0067288050181050435,0.004144374770026791,100.99647674158244,-0.0006701341694191615,0.00041987113707284195,0.0012480985887324103,95852.80705596002,,,
1.07,0.0005376374792021556,0.00030747465883900594,101.1031420794827,0.0018850463987143357,0.00011634046121673053,0.0026047877292186333,,,,
1.08,0.0011015475101394379,-0.0049424136254889485,101.20725265636212,-8.67552047404904e-05,0.00025610338686036724,-0.0008287665406366754,95829.05024291412,,,
1.09,0.0004135628976396929,0.00483740510310355,101.33055034751958,-0.001094167561459925,0.000754552423257012,0.00027003274189160394,,,,
1.1,-0.0023848780106122,-0.003811977352192445,101.45497057163689,0.0018040970524092186,-0.0015610173598793115,-0.0004958650047437181,95804.3933565576,33.49866264008522,-99.33757283362662,476.71773776836375
1.11,-0.002552898202525513,-0.0032861405293095176,101.56824126106702,-0.0014006600334355343,0.000601347898167068,0.0024004683439290187,,,,
1.12,0.0012774222892514952,0.0012596328933472014,101.66973378705663,0.0008231287204420719,0.00038360243339334067,-0.0004348442870414682,95778.29884986706,,,
1.1300000000000001,-0.001453871127533162,0.0005300403645467813,101.75685967206296,-0.0009333647612953494,0.000472570253934862,-0.0005930556118492101,,,,
1.1400000000000001,-0.004762582309412048,-0.002229600445415022,101.84361017949556,0.0003073352488882096,-0.0010548054955423958,0.00047010494490986097,95752.01665758692,,,
1.1500000000000001,-0.003808872370532817,-0.002153069192486622,101.92018952210687,0.0013440131439005946,0.0008961168344664671,-0.0012460485321450746,,,,
1.16,0.0028791565526357834,0.002691834529452126,101.99494806706986,0.0009328450425761307,-0.0006541126542777134,0.0002973477866518682,95727.39407593974,,,
1.17,0.004214128459395794,-0.0033204941048457577,102.07136803573015,0.000415023548926906,0.0005855050922106642,-0.0009171453629334041,,,,
1.18,-0.00010003809178765795,0.0015729208974719334,102.150672313655,0.00033427815848743707,-0.0032640402423872025,0.00018757592293438944,95700.11930978885,,,
1.19,0.004591004892633597,-0.0006699259127018832,102.22435764085174,0.0003569929176031104,-0.00038563754996523506,-0.0011894509515401337,,,,
1.2,0.0021567178828911407,0.004843757580840786,102.31578493908562,-0.002151056417624369,-0.0008865391774577734,-0.0008163539342182668,95672.6971139148,33.498603048011304,-99.3376058898432,486.2759696715071
1.21,0.0027192781727922804,-0.002525246824283669,102.40473820745945,0.000675276473567432,0.00039662168179686104,0.00090757867194368,,,,
1.22,0.0011474815834806595,-0.003402192007131879,102.49019952345029,-0.0009517037613480026,0.00015581018173736597,0.00025343132693601643,95645.43027990496,,,
1.23,-0.003054070746542598,-0.001500006147001418,102.5704436879203,-0.00016924889520918262,0.0006418398516118255,-0.0002225614546590614,,,,
1.24,6.60853108932543e-05,-0.0017868339288639166,102.63964441581949,-0.0006322563863204859,-0.0008278393235827815,-0.0011875003092081669,95616.74239425187,,,
1.25,-0.004033876930221845,0.0022191945747979426,102.70105485328554,-0.0011144442022672984,0.0022269517094567256,-0.0019710106014419926,,,,
1.26,-0.001681982321253203,-0.003994976296793267,102.76146811836577,0.00018680448007431341,-0.0016973708091764755,-0.0003688632184640859,95586.89481534871,,,
1.27,0.00025928906724127456,0.005562222831759972,102.80893155620555,0.0017366828089798564,0.0019961696968265677,0.002564316123263133,,,,
1.28,0.0016523628792415408,0.0031569026251411702,102.8542766618429,0.0005612929179624026,-3.319198954876651e-05,-0.0001889296911686519,95558.13221735871,,,
1.29,0.0042076752813406315,-0.003627819199637436,102.90881723504384,0.0003027408821343276,0.0011269981510854386,0.0010814896970974069,,,,
1.3,0.0002333840372141216,-0.0014003179193566517,102.95620563558501,-3.2211133094193023e-06,0.0007274438150437122,-0.001080969050220719,95528.07627104595,33.49865185313901,-99.33758112517081,505.6413018702427
1.31,0.005153075744640543,-0.0024284852944130163,103.02788311178415,-0.0005780155545121536,0.0012756535485812872,-0.0010635671366704,,,,
1.32,0.0009456353798794492,-0.002911267225436057,103.10184185004286,0.0004150784783385393,0.0007451046411973123,-0.0001211943960664431,95498.45339547367,,,
1.33,0.003645736790687123,0.002834675457115265,103.19711067109793,-0.0017553743755809688,0.0007695764495282133,-0.002395488897430802,,,,
1.34,-0.0026892820322531154,-0.0017503593716680873,103.29751019186675,6.788170354809693e-05,-0.0008760850597792464,0.0008037852931039972,95468.5151334993,,,
1.35,0.00378431049365727,-0.004895958333608616,103.41767866693661,0.0001638308036938431,0.0023944673243349065,-4.110367144103151e-05,,,,
1.36,-4.800484566052443e-05,0.0021354360403676386,103.52741386503105,-0.00046376781360849147,0.002293152473804223,-0.0005849924365265698,95435.9770806806,,,
1.37,0.0015196075970381623,-0.0016130963110022446,103.66766073979059,0.000618106752722194,0.0010380136789150994,0.0017868296248989357,,,,
1.3800000000000001,-0.003086620267360334,0.004121326558370628,103.80266833453894,0.0006074513894020609,0.0004766877638874327,0.0018416287449784005,95403.82017385305,,,
1.3900000000000001,-0.0013955987167682978,-0.0014580267409216325,103.9752190098533,-0.0011453245139628834,-9.396670869621013e-06,-6.570478166713971e-05,,,,
1.4000000000000001,-0.002000472977857294,-0.0035933534239458464,104.15121985628035,-0.001481206023248718,-0.0001025595639407882,-0.0004397192133104959,95370.86289363726,33.49865057846562,-99.33755852466437,514.3967492962299
1.41,-0.0026647935155741176,0.0010448659038969578,104.36535364963993,-0.00044985270347169717,-0.00023258760290965658,0.0009383746000343587,,,,
1.42,-0.0017507817835827912,-0.005511660442073958,104.589524427802,-0.0022939683795318217,-0.001370126544644117,0.0014070887272830716,95338.10703380221,,,
1.43,0.006465089881350006,-0.0036434130535447653,104.75868657070787,0.0005956763789060417,-0.00031154245907715904,0.0005659151785697666,,,,
1.44,-0.000727645285168767,0.00034368649827391394,104.91136513259367,0.00014605711356754111,0.00017667346869460748,-0.0005356925780028159,95304.91828710248,,,
1.45,0.0028066821982786253,-0.0013655299106844463,104.98069554978308,-0.0005882907217006097,0.001552799019800085,-0.0011386208058025494,,,,
1.46,0.0031229954819057587,0.002760417681257171,105.05490955408658,0.00044440585072644517,-0.0007041469337816632,6.424933917826153e-05,95272.08404888534,,,
1.47,0.0022482250493224107,0.004299372326067005,105.03082838113203,0.00031653123532847936,-0.0010275334702922652,0.0009545229924582605,,,,
1.48,-0.004004649409032902,-0.003826199221409108,105.00064311642248,-0.001278791013039328,0.0014358883173978703,-0.00015057975330080473,95236.00564635432,,,
1.49,0.0018859715017151178,0.00042584258536614196,104.9012345867924,0.0012866998589496203,0.00014609503327646294,0.0015174725970806063,,,,
1.5,0.003094167063886057,-0.004200069003442381,104.80006255795844,-0.0012297893249882403,-0.0004969770818142375,0.0006321515588286615,95202.30056913073,33.49859044972345,-99.3376122588111,520.9314425433905
1.51,0.004075928426998529,-0.002696512419100676,104.73705380734614,0.00024201338181255866,-0.0012811584227460599,-0.00014935886344081604,,,,
1.52,-0.007217043695963894,-0.000612971684676689,104.68010180935309,-0.0006361887714874441,-0.0003671593798430031,0.0011884454433164523,95165.67083214238,,,
1.53,-0.0007989250586281374,-0.0004764718938333282,104.66337826805295,0.0006176972534511491,0.00016370808853805182,-0.0004320382841100088,,,,
1.54,-5.213159718102881e-05,-0.004484521114617522,104.64933407949776,-0.0007922509100607621,-3.871854345126925e-05,0.002279160149237783,95130.27344050063,,,
1.55,0.005323082029414597,-0.0008589090841087444,104.65146401773336,0.00165266902040803,0.0004691678448937547,0.0006651960458616637,,,,
1.56,0.002766296022961744,0.0026537935752066386,104.66199299855258,0.00037697438326438336,-9.987362822128288e-05,-0.002729015111095536,95094.23497049097,,,
1.57,0.0035168492380009786,0.0006345524203237322,104.62120935764847,0.000662831165147476,-0.00040713849381328706,-8.335371397847354e-05,,,,
1.58,-0.000362608538778874,0.002263698267053365,104.58395814059298,0.0012700775128099571,-0.0002363732078843508,-0.00048131192590109765,95056.66596323262,,,
1.59,0.0007012576529695083,0.004213914777295412,104.49169780015312,0.0022433821125343685,-0.0002598316497406635,-0.0005042883017866997,,,,
1.6,0.00015706548203703105,-0.0027468642776322457,104.40282565637453,-0.0013242024561956548,0.0003314231152148249,-5.620792514121992e-05,95017.95627151456,33.49866304713562,-99.33759555490937,543.3603391595959
1.61,0.0021226810870770807,0.000809387041555871,104.24056599455258,0.0018422226528011585,0.0006186022576315976,-0.00048573438462523865,,,,
1.62,0.0002693858814366987,0.0018526274706331834,104.07765652780574,-2.637273965603642e-05,-0.0013318505307724662,-0.00025196702764433443,94980.100581578,,,
1.6300000000000001,-0.0006612656271223565,-0.002167826735459288,103.88141948062706,-0.0027476275568657223,-0.0010407269576540063,0.0025482980179872203,,,,
1.6400000000000001,0.00557724579008779,0.00030039682625689925,103.68120969182328,-0.0011440487379839816,0.002326868412845799,-0.0008701026229433634,94942.2956291622,,,
1.6500000000000001,-0.0038811060319599933,-0.003638475051437891,103.48321004181821,-8.920641504774979e-05,-0.00027683763079279614,-0.00034310804224194807,,,,
1.6600000000000001,0.005156999471221216,-0.0016736682030252244,103.29457629760718,0.00046969577582613154,0.00039168761954142125,-0.0009436948995538573,94902.29064087318,,,
1.67,0.0057347595267324405,0.0026328583068404264,103.11310390579771,-0.0014486365651270017,0.0016593235962049707,0.0002940493478689544,,,,
1.68,0.00112998982160822,-0.002005066328739267,102.9393641950373,-0.0005129491424231317,0.00034908388199703745,-0.00019992025996469902,94862.62282553129,,,
1.69,0.0008456306578374319,-0.00642844056943416,102.77337463618159,0.0016131760620930974,-0.00059708929524451,0.002155211315452576,,,,
1.7,0.0015926548997935326,0.00566795995954843,102.59975553075073,9.098788194425187e-05,-0.0017445191605117937,0.0025559359273339163,94821.6107794685,33.4986199863799,-99.3375452817614,551.9447725174393
1.71,-0.002140058013270216,0.0015686488816204806,102.44174446898457,-0.0018919986099538706,-0.001943314330817485,0.0009007469323792324,,,,
1.72,-0.00017452965142413223,0.0013546333000132827,102.27785770482704,0.0007692609534606271,-0.00025431251617940426,1.9388579828198304e-05,94782.79777497494,,,
1.73,0.00523350447634756,0.001977194207468201,102.11685316718034,-0.0018674909357616091,-0.0004232471849304539,0.00043270048272146984,,,,
1.74,0.001321674286137659,-0.0009168707449495464,101.96697721718863,-0.00011943250541212132,-0.0006495354267014262,-0.00021007113431968272,94740.66644722187,,,
1.75,-0.002088868537363413,0.0016148611048159088,101.823461177679,0.0024158159051795897,0.00013835770426753072,0.0012587882754233944,,,,
1.76,0.0034533982780026807,-0.003143421825464715,101.67651424015907,-0.00031081599118393754,0.0006555093203491887,-0.0007249331928188605,94698.64882834109,,,
1.77,-0.006973446240598983,-0.0022904989622409768,101.55787837128341,0.00021956618257759216,-0.0007982147623333339,-0.0008934845722559704,,,,
1.78,0.004187813276542996,-0.0008822320029133112,101.44459542374909,0.0004465149222013818,0.003069162865841597,-0.00013217895734591383,94657.07900498957,,,
1.79,-0.002555265799378158,-0.004446873172707282,101.35517938494831,0.0012571931904759603,0.001181147071410911,-0.0002652579632604917,,,,
1.8,0.0004931093322526485,-0.0009398272191285527,101.25664565120282,0.002192755157816425,-0.0006828674331251861,0.001417374813493242,94615.18026317052,33.49860916193575,-99.33761040980413,577.4914058863618
1.81,-0.0004756584451848354,0.005276840995921774,101.15040344289098,0.0006889108670724155,0.002372165465587324,0.00020679210722741832,,,,
1.82,-0.0006918431077400922,-0.0022053566838547444,101.03826209031341,0.0012080672776580378,0.000903541817719853,-0.0006706322737835514,94571.12333404689,,,
1.83,-1.583375114211991e-05,-0.0017845218782036388,100.88528565915719,-0.0008903638056311577,-0.0010951513640470912,0.0006234266408949087,,,,
1.84,-0.001360594673711818,0.0006715356832353383,100.72418777126754,0.0005675150705490258,0.0011173729430533118,-0.0003195749869473077,94528.10724541139,,,
1.85,0.0021983270940243277,0.0007867166690312164,100.49895702419606,-0.0016838156386950337,0.0011696239387224273,-0.0012418981122456522,,,,
1.86,0.0008038839948571649,0.0007691395606831988,100.26881683111954,-0.00039193934852843187,-0.0011197007346434918,-0.0008066063286811069,94482.96624586757,,,
1.87,-0.00038956983678833945,-0.0018794876893341687,99.97608591070481,-0.00019369980900689566,0.00010982641171422599,-0.0018798091487639865,,,,
1.8800000000000001,-0.003028378566753847,0.0052909092185255135,99.68569864575478,-0.0012500674587399114,0.00144139840974482,-0.0009530473469196489,94438.19156774654,,,
1.8900000000000001,-0.003035157527318911,-0.002465970943913562,99.35916226206136,0.0018504306285109342,0.00011912571696683277,-0.000241959855574145,,,,
1.9000000000000001,-0.0031494071424271984,-0.0031927748062965692,99.03171888349654,-5.248505760970185e-05,0.0011109282335190595,0.000480760164159521,94393.10367532363,33.49861642396648,-99.33760118169798,593.7610141905341
1.9100000000000001,-0.0010320115528631428,0.0010630068445635285,98.69206372815961,0.001627075991964676,-0.0016653654089322316,0.000598185695939823,,,,
1.92,0.0021380095595554993,0.0060578671641046055,98.33882045881796,0.001086866374410611,-0.0008240532523677696,-0.0017030905240870337,94348.7665619644,,,
1.93,0.0014113067734706094,-0.002311264022940363,98.01699913721362,0.0002557188552521991,-0.0017180650980475486,0.0008737773856123233,,,,
1.94,0.004814134119830119,-0.0002385165170499643,97.68884776262377,2.4244477925145765e-05,-0.00013362270893997388,0.0007849861030500675,94301.87866219982,,,
1.95,-0.0017110778231897129,-0.007953285767052001,97.36804902213761,-0.00021576333890145703,0.002066111103031955,0.0007055796938036767,,,,
1.96,-0.0001543825532654643,-0.0040762029064091475,97.04628359648115,-0.00011012153631916072,0.000226202452543934,-0.0007683741107797498,94255.4153375829,,,
1.97,-0.002979210549853815,0.0031958400236926665,96.68563726225564,-0.0010611931574815716,-0.0005380500697840558,0.0017554219314913865,,,,
1.98,-4.290377264546028e-05,-0.0019060218303307602,96.32723882896573,-9.470169237581812e-05,0.002790273128701875,0.0013483881784960982,94206.38301013742,,,
1.99,0.00029608615685504413,-0.004628174508370829,95.9471058064988,0.0022620621964119137,-0.0005091461287638475,0.0010911396753481204,,,,
2.0,0.00047450756085737035,0.004575833663819169,95.571085215894,-0.0010213974215601772,-0.0010995915492473687,0.001986332652043935,94159.39014403246,33.49861615848971,-99.33763537118178,617.8869480119364
2.0100000000000002,0.0013924570053004907,-0.0010330341488230873,95.17009687265978,-3.0311360275639696e-05,0.0017450635183284676,0.0006105456068477567,,,,
2.02,0.00046552084628604745,-0.0010001303454086636,94.76644964580524,0.001308213950969102,0.000360459913814163,0.0008126118375574627,94113.38682606636,,,
2.0300000000000002,-0.001604326874359133,-0.00500195827604232,94.3258608362387,-0.0004771320880130352,-0.0002706905245289817,-0.0007343840354552168,,,,
2.04,0.0032620424630582343,-0.004497378494612144,93.88763844649714,0.0015221378116774295,0.00030760749642990846,-0.00039327988009426733,94065.42688669496,,,
2.05,0.0019756286857039373,0.0035555775246608294,93.3628055261273,-0.0004303650801392486,-0.0003719578902697582,-0.00029203783908334207,,,,
2.06,0.0021131361290983256,-0.0038903619171862846,92.83041784811019,0.002764844609572114,-0.0004965818799275061,0.0007484393536633678,94015.24812829474,,,
2.07,-0.0009096743280294974,-0.00015098687078630104,92.19084296427371,-0.0010052195163333894,5.547353470882933e-05,0.002201560943600076,,,,
2.08,0.0017823883633086006,-0.0010859798641164526,91.55898462468716,7.687408763248758e-05,0.0009628889642713349,0.0011643759668092952,93965.73816141006,,,
2.09,0.0009100532477920161,0.0009141804547495506,90.8580798760394,0.0011124545136132343,-0.0012085423596506595,-0.002432825812146918,,,,
2.1,-0.002627086391560891,0.004107114416893877,90.15025678283723,-7.048791237382797e-05,0.0004948321002285201,3.316246934641101e-05,93916.02120746551,33.49868953618366,-99.3376336801115,637.714593122089
2.11,-0.003819404374245024,0.005038016198223076,89.41966693632756,-0.001518974296529203,0.0005528520068344065,-0.0010586994121867868,,,,
2.12,-0.0006785825877291025,0.0017157221655319064,88.69550371018751,-0.0009786019875895474,-0.00011524729261273892,0.0012479367531717173,93866.29337939092,,,
2.13,0.0014804205824696312,-0.0031626392288438402,87.97351778631258,0.0008829738232971946,0.0005239141572542824,0.0007296261830271983,,,,
2.14,-0.008550308702920308,0.004178032379390913,87.25816019585957,-0.0006674935848870324,-0.0007972223492597834,0.001622349736487827,93816.42885335594,,,
2.15,-0.0021488946821317063,-0.0011147927597146459,86.60260993475097,-0.0011007150744385139,-0.00020439566017668026,4.1842879862392604e-05,,,,
2.16,0.009091129760134356,-0.0009591403875696658,85.95661675424529,0.00012072339138005939,0.0013081006628776113,-0.0009058656665331078,93764.49632005351,,,
2.17,-0.0019489442592903487,0.0025613526228947365,85.32936347915091,0.0007208337557755446,0.0002871177483674771,-0.0010670190708918072,,,,
2.18,-0.0013059234216696587,-0.004337454628691531,84.71933564121424,-0.00017309351110886265,-0.0008619987261654228,0.0006610172884726227,93712.89140735375,,,
2.19,-0.002590216597739799,0.0044271237777027865,84.09995098460148,1.2508982542453212e-05,-0.001313897905486821,-0.0014909085495819474,,,,
2.2,-0.0023258073197764237,0.0014141224770318275,83.50210771743039,-0.0010877887246479034,-0.0004774547935857924,0.0006196467431626562,93661.95005536375,33.49863103248006,-99.33758410301708,649.2134616077367
2.21,0.0011923337061550776,-0.0006582666278301456,82.90955323135343,0.0004887018175820378,-0.0009484090995292993,-0.0005002136294311835,,,,
2.22,-9.856425877502528e-05,0.0009200569427538917,82.32185859890662,0.0010120530361733223,0.00031088794491662816,-0.0018296249296802457,93608.37881271278,,,
2.23,-0.005911641215616478,-0.0024424444840783622,81.74490313971464,-0.00040282569367176434,0.0008275795812441695,0.0013459900171791277,,,,
2.24,-0.002668061576473014,0.0020256048886652055,81.1695309106041,-0.0005128279046402595,-0.0007562552977715079,0.0011462871158155984,93557.19897064671,,,
2.25,-0.004461353214108238,-0.0023421726660247002,80.59704777421719,-0.001219849247618141,0.0011550872132682693,0.000964975524277869,,,,
2.2600000000000002,-0.0016863451186350928,-0.004512514921705387,80.04265275473861,-0.00044436761089022825,-0.0002672612497815,0.00038671815897822515,93502.89715987328,,,
2.27,-0.006354792595366478,-0.0006613164404886029,79.54182488518455,0.001981719122007597,0.0020198959817416787,-0.001340905723080204,,,,
2.2800000000000002,-0.0005064768746563241,9.608731908892224e-05,79.0470707855419,0.0015856331465602537,0.0013917686810961554,-0.0009016021259246711,93449.183510284,,,
2.29,-0.005119156769041799,0.00379419803867698,78.60089654015147,0.00043763940853460396,0.0008964080450585981,-0.0009829624561572788,,,,
2.3000000000000003,0.0024753395924421826,-0.0034277871258987964,78.16388723442536,0.001844046731565953,-0.0005909924704338472,0.0012933422416555997,93394.78649983832,33.49861509935622,-99.33759829585604,691.4246256121821
2.31,-0.0021762109634532005,-0.00456275404707192,77.68101732381831,-0.0007708255093173726,0.0008158360182275602,0.0003063283701922071,,,,
2.32,0.0007713687563797195,-0.002944628902875761,77.18660513304314,-0.0002455098045967517,0.0004260456101781559,0.0008459146765507001,93340.49953044202,,,
2.33,-0.002753876942328651,0.005098075263599516,76.55490117821466,0.0010568535821601835,-0.0013314926896316678,-0.0017050604444318503,,,,
2.34,6.577315484906783e-06,0.0013894845430090287,75.91916942584555,-0.001287271136463723,0.0005505253913703407,0.000495446839255538,93287.62864237638,,,
2.35,0.005165217101800361,0.0011545640622725483,75.28065288718692,-1.9527832881095412e-05,0.0016244944344728336,-0.000619392693791622,,,,
2.36,0.0005228177528972448,-0.0034892629869806954,74.64271000205959,0.0008342986736153583,0.0004236472987336421,8.571829252704628e-05,93231.79836659673,,,
2.37,-0.0016675189350220216,-0.0010625750836012753,75.76734931604372,-0.0017470251161052096,-0.0010378332623001924,0.0019953618520134006,,,,
2.38,0.0030640043670295608,0.0001283719425953503,77.0356332155802,-0.001633935811337959,0.002188948338481473,-0.0003050999174335377,93177.34406337087,,,
2.39,0.002420921410643223,0.0027837313162718653,76.940588534702,0.0014731022826793606,0.0009589428743675592,0.0018679534003059788,,,,
2.4,0.003055018102865521,0.00023349457407357302,76.72962185511214,0.0002087961382719661,0.0004897725032867093,-0.0010847920585982322,93119.81689706125,33.49859432610476,-99.33754722589873,709.1276700016867
2.41,0.0005399304454040152,-2.418285826771965e-05,73.03258689906416,0.0004930808587718504,-0.0002517216959248872,0.0004578840644837016,,,,
2.42,0.0005090241917721,-0.001720811882649375,69.04358634113947,-0.0015437158052606268,0.0013481304382664896,0.001423041447021341,93064.5927570389,,,
2.43,-0.0012229419030592968,-0.000743516345816303,64.31395526804685,0.0025528290813565425,-0.0013287653557684299,0.000832172744389743,,,,
2.44,0.001836578797492465,-0.0004524577505206209,59.52024412283983,0.0015399035426953557,0.0005644862447477082,9.623598524407222e-05,93007.83767307487,,,
2.45,0.0012195748624262304,0.004276496101329316,52.77525626560987,-0.0012597345476119317,0.001171588822390484,0.0009180655476131922,,,,
2.46,-0.007721032108534462,0.0017746075834637312,45.86336564952786,-0.001163163508316323,-7.177931677076356e-05,-3.814089786533149e-05,92952.17040907414,,,
2.47,0.00020703592044410827,0.00031647083126926616,40.405464150316746,0.000171152803042048,-0.0017738972167870514,-0.0007625326013126071,,,,
2.48,0.0025417706499626983,-0.0013883029356238836,35.07600685324204,-0.0014985933757543563,-0.0007338631504173262,-0.0009877792276695079,92895.73087216125,,,
2.49,0.00654257880455904,-6.704374401093897e-05,33.26895457665956,-0.0010010911276742418,-0.0008446491748504684,0.0001129065503295156,,,,
2.5,-0.0005071363233276285,0.004476014974826718,31.759323516291005,0.0007276902260771767,-0.0005607974270036729,0.001345624285544414,92838.25077171123,33.49863640815354,-99.33760063674272,737.4424388422415
2.5100000000000002,-0.003084155176562752,0.0011629989675332238,31.083413811322664,0.00047592575340022565,-0.0024342519198179173,-0.00010888977420053913,,,,
2.52,0.003690827267784241,-0.0007170530996370162,30.490473737291524,0.0014855847202575718,-0.0011068133478774375,-0.00034303772686333897,92782.28732732001,,,
2.5300000000000002,-0.0016530228840680656,0.00010626586640324155,30.079494964343255,6.8943405972922204e-06,-0.0004077779276205817,-0.0007188973319659139,,,,
2.54,0.0022438813300057004,0.0013411248951874291,29.68028241396298,-0.0014677584158435382,-0.00017163543662643364,0.0012754108532640031,92725.46442570593,,,
2.5500000000000003,-0.003987147364762277,-0.0042396378160889075,29.264740064661027,0.0004954855780251229,-0.00026929894773615405,0.0004096477256658486,,,,
2.56,0.0051622688669471705,8.290188452770061e-05,28.854694518161654,-0.002038844815962665,0.0014584576050888616,0.0014740467429630764,92666.60913425243,,,
2.57,-0.0018107960389363111,0.003359397684887729,28.590518720042922,-0.0006736222031822412,0.0017477768333863733,-0.0023047051181007156,,,,
2.58,-0.0012499862865931804,0.0019465199404169544,28.334237569672013,-0.0024214312043650734,-0.0008983656159867642,0.0006534709112076298,92609.83334801705,,,
2.59,-0.002757420621928657,0.0015925066454036633,27.961971760700568,0.0008564350389295989,0.0007290498490822665,0.00030776617057356705,,,,
2.6,-0.0021882640602998845,0.0038489456655203314,27.579126091479743,-1.3362371394880609e-05,0.0014560004454809083,-0.00045123194217443197,92551.23990694172,33.49859736489534,-99.33761763467642,754.5560306426796
2.61,-0.0026335835633565703,-0.0025168456039221915,27.172680220698542,0.0010389356893652183,-0.0008111851252653931,-0.0008044156763476783,,,,
2.62,-0.002169420701639003,-0.002005174275339009,25.328104155420966,0.000907524496972003,-0.00019381479511870587,-0.0008260012726166192,92494.30035380281,,,
2.63,0.00031626036851322044,-0.0040386012330461355,26.387036628405735,0.00013203292316500627,-0.0003355024075255089,-0.0006387952320898965,,,,
2.64,0.0022406586061499384,-0.0010287709078525742,26.001677697939787,-0.00023142236133779924,-0.0017000012847465682,4.180208382206804e-05,92436.21155082007,,,
2.65,0.00481818575706187,0.00011679888935789109,25.6242279406205,-0.00042140673607679705,0.0007514974659378731,4.844228657931908e-05,,,,
2.66,0.00044704806249807125,-0.001949004529192815,25.246466444186776,0.0018082953476342503,0.0007386569822896009,-0.002175944891495114,92377.51224779448,,,
2.67,0.00028564782587922556,-0.0002926109743246527,24.91884319997182,-0.0006243552150919396,-0.0003952367339416753,-0.0010583300129785294,,,,
2.68,0.0020676645435408134,-0.0003636985045747504,24.59113401858253,-3.221782608029976e-05,-0.0006717064993185358,0.0009993758136451958,92318.36796810347,,,
2.69,-0.006311755268264176,0.007207522998103041,24.2975209868411,0.0012937829677087172,0.0015922698095889704,-0.0011056831233271019,,,,
2.7,-0.0002784704145897383,-0.0006383067077800671,23.993686501885925,0.0009627961940759767,0.0007628098576049917,0.0014069192099738263,92260.31978080439,33.49861410135452,-99.33767776489636,782.3449562428337
2.71,0.0006121270173281305,0.0008449038925199161,23.70549267960224,-0.0002482080121348372,-0.001636016849042402,-0.0001370060439984639,,,,
2.72,-0.0025006477106940214,0.0007884912037123897,23.415078572469497,-0.0010933113038546116,-0.0014660394078907005,0.0005913310211964506,92203.243854283,,,
2.73,-0.0005457840402548521,-0.0005958510800140016,23.118909232440046,-0.00021305489822926805,0.0017664106510315925,-0.0013847461633096358,,,,
2.74,-0.006443441841675523,-5.2977316786085954e-05,22.820844010333833,-0.000672065727769616,-0.0014164275217782851,0.0005309860899077216,92142.67541192636,,,
2.75,4.12108288523685e-06,-0.0028534390571871224,22.530505853740404,0.0005608266833144883,0.0009642054093342502,2.0034792852456196e-05,,,,
2.7600000000000002,0.0016061984134559794,-0.0045903385770905795,22.24627843184133,-0.00010949752661618069,0.001167384015190607,0.00038186607182406126,92084.6691372108,,,
2.77,-0.002908289872083673,0.004917271739833959,21.95889927326029,-0.0019584641495446237,-0.0008636726250287252,-3.7512782579252644e-05,,,,
2.7800000000000002,-0.005248478354747256,0.0005599249700513012,21.665396099716922,-0.0012187887346013174,0.0008976747395805802,-0.00011880951352138291,92026.01889453658,,,
2.79,-0.00048599677806591117,-9.912226583403635e-06,21.413603233533873,0.0002906954046107912,-1.9105359578918305e-05,-0.001282512599667337,,,,
2.8000000000000003,0.003212273314244754,0.0005793999953151094,21.153381422850636,-0.0003113029815265982,-0.00046456808077967397,0.0015866425226465208,91968.12317822519,33.49859719537196,-99.33761511816138,813.068706719364
2.81,-0.0005345362426935679,0.002836166898412183,20.91309509895799,0.0002970304623266411,0.00012159056775587485,0.0005871188118190568,,,,
2.82,0.007001983642215866,0.0007324261166825778,20.682404204129043,0.0011100588726972518,0.001840632887515082,0.0007167021527756635,91908.13478827012,,,
2.83,-0.002103556357036397,-0.004906744472920303,20.436353644400235,0.0015647383511948698,0.00010870492866881247,-0.0008775741270791533,,,,
2.84,-0.0034535489297021927,0.0004040324054030502,20.20805487607897,-0.0003236094451253489,0.0013452206312226898,0.0005980481077198764,91849.32169726313,,,
2.85,-0.0037528659951145504,0.002452663489786474,19.99704369014937,-0.0005092391846406412,-0.0009004855367503245,0.0003096566524837172,,,,
2.86,-0.0016174285232156435,0.0011639558463864613,19.789741220707366,0.0007833974967963308,-0.0008022768235839505,-0.00038673330015453447,91789.16661493664,,,
2.87,-6.366405391205844e-05,-0.0034498397752363817,19.57916799851101,0.0005400197353480192,-0.0003056600043767348,0.00027840394395627907,,,,
2.88,0.001258382087050323,-0.0005980643931782513,19.36064128869797,-0.0006104975327581453,-0.0006912835749753819,0.00170041971305731,91730.33582929187,,,
2.89,0.003931436272263541,0.0009630987880426727,19.104448115658133,0.0015585432562895726,-0.0011089082069246443,0.0014161990208635933,,,,
2.9,-0.004271261407918624,0.0031131686669951097,18.84195936188701,0.0008814383465493173,-0.0006735135743267585,0.000545322529130045,91671.65113375866,33.49863455035449,-99.33758482383084,841.9930073611454
2.91,-0.0003795397718633409,0.002423121712824549,18.580616080247825,-0.0007758261396210603,0.0006055723705419144,7.204347350695966e-06,,,,
2.92,-0.0014865524321219722,0.004411180695308341,18.31462151508341,-0.0003535219097390334,-0.001024765585583064,9.693913875066725e-06,91611.90391652395,,,
2.93,-0.005323528496415172,-0.005771132747861463,18.030248683739035,-0.0008990953710024608,0.0006170912643466179,-0.0026929657567034923,,,,
2.94,-0.0009176860713579605,-0.00037565753883708064,17.73856125389221,-0.0002536476580271777,0.0015538960215484648,0.0010658253133437323,91553.86949525874,,,
2.95,0.001607480290014661,-0.002598635610425107,17.421271917855528,4.0859264927686454e-05,0.0003002296946135794,-0.0007714217681086962,,,,
2.96,0.004278737700672011,-0.0011567423383784848,17.107943988025745,-0.0005716642394635164,-0.0013312210750783897,0.0013192169121988998,91493.18566156465,,,
2.97,0.0022961432445998105,-0.0014509823161165424,16.788035153938722,0.0003034201491323913,0.000918399782761916,-0.0004993080795462875,,,,
2.98,0.002444030642252985,0.0012016439424912442,16.469868625514057,0.0016488953877415013,0.0015205423338660387,-0.001541511661634475,91434.226155078,,,
2.99,-0.00198221111407766,-0.0005795648690634859,16.13437599855414,0.001082268814122972,-0.0012573397951771397,0.00030848113762732153,,,,
3.0,-0.0022779000101997853,0.003173837330140874,15.80131046836503,0.001582142209474862,0.0013359707582496067,-0.002159549080981251,91372.52785790153,33.49864821040615,-99.33755318041047,860.0271413266421
3.0100000000000002,0.0007189421544805416,-0.001524699287078208,15.470640577842653,0.00030114925918887795,-0.00019880074777715043,0.0012650931297233325,,,,
3.02,-0.00010485920597655297,0.0002469446178794086,15.138203568975644,0.00012638881437684405,0.0005870194194396409,0.0006913781930732544,91312.84925587836,,,
3.0300000000000002,0.0014395913032755432,-0.0005113674410051526,14.81732723763808,0.0001037180446541042,-0.0006625969256463742,0.0010434377732086654,,,,
3.04,0.004506932025948278,-0.0015605948011948444,14.495559649198208,0.0005990555574346787,-0.00042664397179014915,0.0008224400430867691,91253.73855124018,,,
3.0500000000000003,0.0003241995507757519,0.0014046357964924722,14.194915874835456,0.0006554243503676131,0.0002442481221168318,-0.0006547645801580146,,,,
3.06,-0.0014932376881854244,-0.0020150710576726807,13.898914246563665,0.0007845900745279973,0.002147769271382758,0.0006625994479770327,91194.29725899672,,,
3.0700000000000003,0.0006491115759979486,0.00436726383931253,13.599360453025401,-0.0012795414192853785,0.00013260383152212467,0.00037348185833782567,,,,
3.08,-0.0006569055372626525,-0.002928576836659281,13.299875103471443,9.241865065793628e-05,-0.0015511829211736381,-0.0007779586547131692,91133.85592446204,,,
3.09,0.00354838699222713,0.003107030234648203,13.004240147419653,0.0006541571148966344,0.0002627242450711849,-0.0012917607076175475,,,,
3.1,0.0051646432677386785,-0.0006886707702629317,12.71942538479269,0.00046980739884100974,-0.0016159444709761604,0.0007028453804309558,91072.85856834137,33.498578430138224,-99.33765000287983,889.8705066009096
3.11,0.004691463945926137,-0.0008692817998300274,12.46378085614919,-0.0010073260247032484,-0.0012352042954066609,-4.660434089696761e-05,,,,
3.12,0.0036201543602146576,-0.004140648422960109,12.219597044927857,0.00118465162517339,-0.0012956087964234432,-0.0006453332046846874,91013.96579707276,,,
3.13,-0.0020877744389032117,0.0018380481024009127,12.002453712390029,-0.0018472882175861087,-0.00244701439687225,0.000548401161861099,,,,
3.14,5.614630745522509e-05,0.001868560941864602,11.800623274669945,0.000793921034022326,-0.0007254928744338472,-0.00030598986300766517,90954.00755901357,,,
3.15,0.003940872984008996,0.001826749200335679,11.622964965263977,-0.0006402812829967388,0.0011003051648119414,-4.569888706251264e-05,,,,
3.16,0.002434651975301744,-0.0012939313339225982,11.436684371388104,-0.001080026524026989,0.001995723829696304,0.0007500594696992144,90893.09511918813,,,
3.17,0.0015788765566411057,0.0013484782943092466,11.246705770582121,-0.00038535743959125626,-0.0008808319695880303,-0.0009437543164367786,,,,
3.18,0.005405681181612067,0.003214351325710956,11.057907969425283,0.001924677376008066,0.0005483368684909386,0.0007310729887322161,90831.41958880505,,,
3.19,0.002926576552403994,-0.0020268731334526203,10.836631278256059,0.0009858267800151015,0.001402495017824954,0.0003456347706779914,,,,
3.2,0.0032133762265618977,-0.00042503909544942375,10.616142898134065,0.0013319653491841318,-0.0014877141456453617,0.00041660713910419126,90770.85938425155,33.49861358136175,-99.33766921824551,921.5779359488066
3.21,-0.002935656941974642,-0.004989681350559926,10.337096381909625,-0.00028384415251494897,0.0010526582315383032,0.0012943810581299258,,,,
3.22,0.0015331230795569948,-0.0019046845646945372,10.058009154959098,-0.0015210290970377085,-0.00047251629085024534,-0.00026593256457667775,90712.11055916447,,,
3.23,0.001524591254464485,-0.003638407175119068,9.685160845167704,0.001067390130949988,-0.0005835513036241428,-0.001460289273108755,,,,
3.24,-0.005044168123786342,0.00258204927994014,9.30268570715745,0.0009897767410464724,-0.0009177237435190098,0.0009276600929700997,90651.35429943464,,,
3.25,-0.0026664335146618784,-0.0007787700857976453,8.798993626207164,-0.00019859925560033906,0.0003091442480665912,0.0003631218059594219,,,,
3.2600000000000002,0.002325372476943443,0.00012149348805507057,8.285735002156938,0.0002565456952864745,0.0008782648478300014,-0.00040016674314907903,90589.90925544442,,,
3.27,-0.007200726433097371,0.0045447482844780075,7.740481455894359,-0.0007796475739316916,0.0007787328916945591,0.00036994420701170783,,,,
3.2800000000000002,0.00031639080232494904,0.00226770628369662,7.196011170489567,0.0007633634072760839,-0.0014775897051650345,0.0006235610213277645,90531.22543781284,,,
3.29,-0.001607813073954506,-0.0004927915987946295,6.599667595208102,0.0019708956569440706,0.0005628913919632911,-0.0008801618543791766,,,,
3.3000000000000003,0.002921109408474957,-0.0038994475110238273,6.009457654445789,-0.0009370259457116426,-0.0010125658392681643,-0.0003423864274746836,90469.33347715814,33.49856941710875,-99.33761651804035,949.99304599624
3.31,0.0011478550578281899,-0.001263703376170267,5.392000528867487,6.125094345262441e-05,-0.0006239781586666105,0.0013965996523232428,,,,
3.3200000000000003,0.0036292884038553893,-0.0037891826761288503,4.77365594876097,0.0011208593560198727,-0.0003006893281860374,0.001822577846899327,90410.19191216498,,,
3.33,-0.0017178632199507968,0.002481871091713181,4.091130006289942,-0.0006846781054175166,-0.0008543925583145396,-0.00044325691889308765,,,,
3.34,-0.0005882113319786489,0.004991375295441655,3.404090125905749,-0.00020371431946194005,0.0007748735288782931,0.0001273966568871569,90348.48397354188,,,
3.35,0.0017580167424224489,-0.0021047675543252467,2.503447059344244,-0.0007883753137748538,-0.0002566614501766787,-0.0008973837964588251,,,,
3.36,0.0004492077095876157,-0.0041663247879843044,1.5935599092096027,0.0013252315048997159,-0.0007779506232698315,0.0009739212637352445,90288.34559483604,,,
3.37,0.00022666003533392532,-0.0018924980236913927,0.4482008376310303,0.0003352544294000674,0.0008734964867706688,0.000858580866355953,,,,
3.38,-0.0032201460080384893,-0.004445279639760436,-0.7214331002318137,0.00156745727406996,0.00013001349257548878,-0.0002606771098163149,90227.16959092932,,,
3.39,0.00271989844116342,0.0031582040059309076,-2.1162453982452525,-0.0019116067783919815,-0.0024523722481589226,0.00023418598820042558,,,,
3.4,0.00038502376736359255,-0.0009500199704381437,-3.5358755776683015,0.0004933157061519182,6.713977908744355e-05,-0.00020915459723665943,90167.2987576342,33.49862144859771,-99.33766731537152,967.3759453023274
3.41,0.0014503330609633906,0.0004491472574732369,-5.054555870081144,-0.0017067000465406565,0.0005964587083295036,-0.0002166591205051166,,,,
3.42,-0.000717705170161845,-0.004268724113394813,-6.565524525278318,0.0004330032569555722,-0.00048414897167245474,0.0006121099279907224,90106.62288897959,,,
3.43,-0.0029502116883638094,-0.003368272823475477,-8.019287660976136,0.00023993773493287743,0.0010567580020176795,-0.0005722020763461068,,,,
3.44,0.0029955250261851094,-0.0015417250097183156,-9.47026101392037,0.0014439920199216703,0.00038179747039490057,-0.0005297296534825004,90044.04274896278,,,
3.45,-0.005865385847866875,0.002599693190260312,-10.765022673353013,-0.0010386223680622652,0.0007510860956586788,0.001281065344912773,,,,
3.46,-0.006937952156094505,0.0026046954218360433,-12.046610913152426,0.0007506683123906396,0.0026951145045428534,0.0003045278374291571,89983.56960060673,,,
3.47,0.00032098572000549314,0.001524817347621268,-13.16037589793228,0.0006123603940983011,-0.00011240367580275191,-0.0003700348440710712,,,,
3.48,-0.0002677064014143539,0.001572529856891471,-14.271572696568455,-0.0012161337399384977,-0.000462439433084501,0.000633953515611323,89923.02821817675,,,
3.49,0.00019356808216699294,0.0032561222285984234,-15.2214668333417,0.00016957415374545712,0.001202960062918155,-0.00027034708587527715,,,,
3.5,0.00036619507240603683,-0.0018576355139437667,-16.164957600920054,0.00015837906672510246,0.0007141527879418476,0.00044080511748473386,89864.27829389973,33.49865936425754,-99.33766923407555,1000.9966592336714
3.5100000000000002,-0.002600728115998491,-0.00208355818723788,-17.041530270162326,-0.00047866386580555246,0.0009184547079396258,-0.00027470544041392536,,,,
3.52,0.0013220071774331182,-0.0037858872875815384,-17.918191826653004,0.0013448521588735494,-0.0012816629497296801,0.00039861356221410895,89802.50005071503,,,
3.5300000000000002,0.0005835045819885817,0.005623606925361636,-18.76032263009744,0.0011806777649611454,0.001206183725388424,-0.000484030510490145,,,,
3.54,0.0037127530829305405,-0.0015859188863496716,-19.60377981652908,0.0004788716548894745,0.0006223142240544526,-0.0004898812308921964,89742.94855895001,,,
3.5500000000000003,0.0012804527260662415,-0.0026686359916319995,-20.365612103977316,-0.001306199526992212,0.0016523622063177304,0.00030595738720575665,,,,
3.56,0.003097097474665427,-9.868263379668281e-05,-21.13457770340391,0.00042441935529340694,0.0021445931842772243,-0.00016364230990174286,89681.47153276182,,,
3.5700000000000003,-0.006685681351990385,1.0573192558031442e-05,-21.9010422873686,-0.0010095017538140113,-0.0007098278175942502,0.0006438605164984424,,,,
3.58,0.00494279309350778,-0.0014648499184244039,-22.668351406761648,0.001354475558871853,0.000700082162082969,7.344280510452204e-05,89622.4516924301,,,
3.59,0.0009082045580399992,0.005402382002142343,-23.1556405959666,0.0004306749535799079,0.001590030239570187,0.0013771963185595037,,,,
3.6,0.0001307754733393888,-0.0005321248861431053,-23.620253253830473,0.001922891005026665,-0.0004888915542540448,5.2264865598440865e-05,89561.59934912475,33.49865457519814,-99.33765148673562,1030.741758051904
3.61,0.003934794723501661,-0.0020207185611045477,-24.083132706550487,-0.0011576878339771154,0.0005230698993920129,-0.00020792551798218235,,,,
3.62,-0.0005021880732544032,0.0008538445656674021,-24.542086178993177,0.0005194623494118982,-0.0005542948980833756,-0.0006896715013073655,89500.7274694802,,,
3.63,0.0033635167094695335,0.0020160803073721806,-25.19768369038281,0.0009476298435583802,-0.0013328537185038232,0.001506142733817434,,,,
3.64,0.004674053221307501,0.0028720990871053905,-25.855275197489743,0.00045077769433106126,5.6040317296568494e-05,0.0002070450445592358,89440.60345688747,,,
3.65,0.001204582544092511,0.0005793607902180359,-26.48548948224046,-0.000661641755099716,0.0014367911013748575,0.0005024220274534087,,,,
3.66,0.004264436900670952,-0.0026831448112091512,-27.11998114705656,-0.0003387455334766132,-0.0006644713684328723,0.00021704802162331554,89382.0889228465,,,
3.67,0.0030744139787783438,-0.00033229729569397685,-27.97088162714703,-0.000869059445598966,0.0002582777637821022,-0.0008074717269341912,,,,
3.68,0.001073681961247922,0.0025151870410086634,-28.840738075136255,-0.0003238581094621966,-0.0007849251066103114,0.0002457487565063457,89323.50117930127,,,
3.69,0.0035654332765610933,0.0032128602212463182,-29.62783119984647,-0.00172276959617512,0.00040718304906146017,-0.0004648455162343599,,,,
3.7,-0.004394915615451867,-0.0034611874308696612,-30.4011163894584,-0.0011221021803089167,-0.0012061360992470433,-0.0002327960723657535,89262.60916240707,33.49863544973668,-99.33764141908456,1053.7148443977508
3.71,0.005108772534352467,0.0034892577337279724,-30.90052141199199,0.00035343789130084694,-0.0010329213791480261,-0.0017394293856656325,,,,
3.72,-0.004356403014629631,0.003689446596612179,-31.382513712290656,-0.0005392014687034218,-0.0005152864928692309,-0.00060004707835032,89203.5453068821,,,
3.73,0.0004383221617737105,0.0006140884995105105,-31.78146934114609,-5.9118337000102776e-05,0.0008280752916107448,-0.0013312714977320452,,,,
3.74,-0.003547933648913511,0.0028449903614658737,-32.1716559094291,0.00023764752762399125,0.0006189738479173642,0.0015491530581003877,89143.63409281852,,,
3.75,-0.0037905260377788064,0.0002443191790734168,-32.499084711556485,-0.0013740853350296324,0.0001514190904498522,0.001287441422308023,,,,
3.7600000000000002,-0.0038844091277162136,-0.0034997172087465997,-32.811953225830905,0.0020657734749298254,-0.00015887872986633677,0.0009905460739681362,89084.78075708545,,,
3.77,5.3256603800001886e-05,0.00011995920488569201,-33.069264462189786,-0.0015693874342163551,-6.95691842078763e-05,0.0010167722065597849,,,,
3.7800000000000002,0.00022248157624330702,0.0025998360193098926,-33.31243346167599,-8.136861800431812e-06,0.0008173272613333938,-0.0009258412467874219,89025.68298533939,,,
3.79,-0.001913884228994117,0.0005717289275330805,-33.50660475353747,0.0010240237536141377,0.0014017825207633058,-0.0012406943059250968,,,,
3.8000000000000003,-0.0037502660090861038,0.004075096485530745,-33.69721478799405,-0.0001626798642262809,0.0007382738543115015,0.001189822022912277,88967.20858260385,33.49857582667313,-99.3376098131083,1077.3248461107275
3.81,-0.0023483204061970965,0.0018617368795902102,-33.810903480516664,0.00027607435935096843,-0.0021916333723616638,0.0009013286052202539,,,,
3.8200000000000003,-0.0018543086293622585,-0.00032547517031846645,-33.93291981267793,-0.0003031125632770036,0.0014669908779970733,0.0003672241198836499,88909.07958557554,,,
3.83,0.0015840241507638646,-0.0014114489248310228,-34.004216928569534,-0.001178095436175167,-0.001189953527888226,0.0009436153825543004,,,,
3.84,0.002904859763516858,-0.0017562403465920353,-34.06681903058222,-0.0008659024268671666,-0.0008327717205910977,0.0010743273900830819,88850.25018899831,,,
3.85,0.005045618307996418,-0.0034617442424966487,-34.10339068768791,-0.00042129310885692087,0.00037986315305288534,0.002395501505392564,,,,
3.86,0.0011869535056903459,-0.0041457018647876815,-34.136682376787135,-0.0011559494200188694,0.0008500162729651134,0.0007466501725675184,88791.36331683239,,,
3.87,0.0011519533289882844,-0.004379375100457671,-34.1778787373164,3.205432799557228e-05,0.0006765496868075397,0.0010508477900251763,,,,
3.88,9.946658241244218e-05,0.0015681351328528268,-34.23322579218693,0.0021008349589279004,-0.0007464542537496229,0.0005904399433903011,88732.44522738669,,,
3.89,0.0011175403993470031,-0.008225619666082403,-34.284554093750934,0.00010397702375789,-0.0007446646044067769,-0.0014701670768596886,,,,
3.9,-0.0012895312608989095,-0.00039798690780675985,-34.33371374100092,-0.0016874523381024908,0.0007597528548837222,0.0004585585870314202,88675.81067283574,33.49863555474096,-99.3376293375859,1110.1656817931805
3.91,-0.0026018997219123055,-0.0009187281434553994,-34.67202816938331,0.00022479950912403183,0.00018240792293153723,0.0018331566992606152,,,,
3.92,-0.00038390880657729234,0.0016915270679536724,-34.63127031125898,0.0007170869555666616,0.0002963625604504421,-0.0008156222814339775,88617.0646687047,,,
3.93,0.002162656794158018,0.0033615974547884027,-34.58961402005366,0.00040626287068361967,-0.001304426107582267,0.0014857595269101007,,,,
3.94,-0.002244429396314991,-0.0016707198057421871,-34.552329673535496,0.0005296302497798788,-0.00041718601918281284,-0.0009005142868681621,88558.97806731668,,,
3.95,0.0005075471747226925,-0.000849561762232065,-34.51160097215169,0.0008429653100140605,0.0004213869692926724,-0.0010642989830674202,,,,
3.96,-0.004057456912718845,0.0020152340358996755,-34.47930250075977,0.0001549513130701751,0.0007011614607709767,-0.00023243032919204113,88501.0631069556,,,
3.97,0.0008873251735285524,-0.003710737075579071,-34.44172963215629,0.0020443309927711587,-0.0009467728250858753,-0.0014414208461010776,,,,
3.98,-0.0033993861542789727,-0.0009225716790379853,-34.40171852429323,0.0008210469275718561,-0.0005634644956861909,-0.0028615464487124556,88445.17219196266,,,
3.99,0.0009301797097976566,0.004692537562314728,-34.37041743386571,0.0005871321219513685,-0.00016543788509676855,0.0021631626916360997,,,,
4.0,0.007096841914745836,-0.0032767314192341285,-34.33461931213333,0.00037011884712006725,-0.0013462319707145242,-0.0003439541624713811,88386.48559591337,33.49862723100331,-99.33766050039209,1130.2751094338919
4.01,0.00016830644006443502,0.0033237302670161544,-34.29844217395034,-0.0004997773568762609,-0.0017624938201718475,-0.0010552946129540215,,,,
4.0200000000000005,0.0007360658877082707,-0.0023088926308138832,-34.26056091426041,0.0018091499936269933,0.0010454915504160918,0.0011079487910065702,88328.42558423567,,,
4.03,0.0011405861863864803,0.0032755285650027523,-34.22765242071881,-0.0015693786894011887,0.0009099811914963334,-0.0005106827186559008,,,,
4.04,0.0010672093111822303,-0.005442089856769069,-34.18467186073481,-0.0010650274153088638,0.0012986489438117112,-0.0017164033245622762,88271.69334914071,,,
4.05,-0.002751114062525566,0.0018642380092564008,-34.14586197674035,0.0012231857230327044,-0.0011360224989476109,-0.0006937143105997249,,,,
4.0600000000000005,0.0033810730746453724,0.003640553875550532,-34.108114574141226,0.0011311706569921197,0.0007918451458450497,-0.0006862731166556344,88214.87992982155,,,
4.07,0.0012142915951469113,-0.0029111751034807906,-34.07501765578187,0.0008235496372840642,0.0013544276062426414,-0.0019315002738428348,,,,
4.08,0.0008708202392442191,-0.0027152646224120106,-34.03594109082522,0.001634013633538325,3.667299417405765e-05,-0.0002198092798943469,88158.45280356226,,,
4.09,0.00185256328305776,-0.0020643922255990945,-34.003248114199266,-0.0005815494439063789,-0.0004365071027541333,0.0006326942312616069,,,,
4.1,0.004396202482987085,0.008064280396920443,-33.963684993520744,-9.680809371827104e-05,0.0013971401344159814,0.00027293214185618455,88100.45538944064,33.49859124685236,-99.33764980882766,1167.5794427727437
4.11,0.0007942301744218981,-0.0009451594360357906,-33.9239858060494,-0.0001978273646437726,-0.00011706822728673277,0.0006104874510622123,,,,
4.12,0.005984060153706846,-0.000427398421735565,-33.89835686061362,0.0001243114710279049,0.000892661464000986,0.00013614851207162422,88043.72957935017,,,
4.13,6.269331641742728e-05,0.0014206731725523245,-33.85906655701048,-0.001379181348129942,-0.0007814101484473711,-0.0002834824069324787,,,,
4.14,-0.002494441004324804,-0.0061782433412382355,-33.821076581460595,-0.0004906136105298817,-0.0004886468982334142,-0.0003800701069901174,87988.34692784066,,,
4.15,-0.001286396305875888,0.004226456528125579,-33.79002475832826,-0.00019541722024511,-0.0006441848074233324,0.0007969117972462773,,,,
4.16,0.0001315175964689907,0.002844346218755045,-33.74725625171058,0.00039925369279197767,0.0010809864273691448,0.0019313680712171875,87931.17562804472,,,
4.17,-0.0002744943175491952,-0.00039037732018975445,-33.71521649933992,-9.44271536752345e-05,-6.337665385309925e-05,-0.001710075667799992,,,,
4.18,0.0023776064267287443,-0.00620570648664163,-33.68493631705386,-3.820828654113336e-05,-2.6525862457607817e-05,0.00032703747846393516,87874.66268324105,,,
4.19,-0.0007141251794212986,-0.0019182617588528175,-33.64678751616483,3.188665964523408e-05,-0.0013806184369182595,3.606480381814122e-05,,,,
4.2,0.0005164179268374536,0.00013441387272931037,-33.61856117619475,-0.000358224524693891,0.0008755063322900149,-0.0022554665906893254,87819.50672567716,33.4986173131438,-99.33757267125549,1188.8831446564868
4.21,-0.0008788832504726256,-0.005137538763828506,-33.57639630360044,0.0005836027657106413,0.001406525828629619,-0.00019892273506686675,,,,
4.22,0.00040082782925987776,-0.0002560612661333866,-33.54574091199534,-0.0017965342999086001,0.0006296389299863895,0.00040849090284397153,87761.74789683137,,,
4.23,-0.002401187136857885,-0.004826977874950464,-33.51168692536878,0.0015769073810138735,-4.604341413478197e-05,0.0006433662138088078,,,,
4.24,0.0001370199908739646,0.0012363293711654308,-33.47595415310431,-0.0002485618606921122,-0.0006346620788760126,0.0003914743425045229,87706.94030189018,,,
4.25,0.0033008895390989395,1.845732084205518e-05,-33.43273634576408,0.0016624487537829932,0.0006240665924307741,0.0009667842195758,,,,
4.26,0.0005842534727237788,0.002408166493894251,-33.404547619943095,-0.0005602460289555043,-0.0004499206887903445,-0.00016398238321685608,87650.25118873852,,,
4.2700000000000005,0.0032315329333087485,-0.0006445145469210383,-33.3675774534129,0.0003188677915432538,-6.573313591739071e-05,0.0016969495479497697,,,,
4.28,-0.0017266246092348268,0.003322293792019615,-33.33614237219906,0.002228927955021175,-5.447764751194781e-05,-0.00023905885364771605,87595.54025935086,,,
4.29,-0.0016234234069227153,-0.001402447493947902,-33.298371645663586,-0.0002510971086285561,-0.0004603619259516298,-0.0013257390074187328,,,,
4.3,0.0028061940864160047,-0.0007042240390324501,-33.27138277114024,-0.0021635231681077782,0.0013003347584015887,0.00035090768993515384,87539.00105706,33.49860629663776,-99.33766245837498,1214.9751862082298
4.3100000000000005,-0.00370750792055165,2.9384522222839383e-05,-33.236321083294584,-0.0006868894564196625,-0.0009741524702396857,2.0813602718191947e-05,,,,
4.32,0.0008798980121829585,0.0009133897168761833,-33.19782978899898,0.000736826374295588,0.0007293829381592524,-0.0004837415584279585,87485.92115712845,,,
4.33,-0.0004500997591867969,-0.003223718199233364,-33.16373841498594,0.0028319877153062875,0.0013765702111838197,-0.0004954052092552641,,,,
4.34,0.005485313360001316,0.001465050441666155,-33.130239910751534,0.0007265312297269038,0.0010976770616041105,0.0005344805872964432,87430.71686973644,,,
4.3500000000000005,-0.007848895664104539,-0.0035350943604026655,-33.098971107920754,-0.00025531699648977764,0.0008833213175320743,-0.00025409814618400427,,,,
4.36,0.0020358655800239876,0.0019018111770210998,-33.06439860126892,-0.0004973585196877039,-0.0013427788701899847,-5.100685839456076e-05,87375.28020236424,,,
4.37,8.80778882398179e-06,0.0018567957092243258,-33.033094976900365,-0.0014337152985735612,0.001492588462375868,-0.0006917031127501975,,,,
4.38,-0.0005971092503210325,-0.0004908179340134621,-32.998223427557605,0.0011635381534979758,0.0003762240203570136,-0.00028169570640131244,87320.40274353807,,,
4.39,0.0005729209707124821,0.002464349313746361,-32.9630115138956,0.0005226784208074228,0.0005127832929009257,-0.0023333773869725206,,,,
4.4,-0.000305940914517998,-0.003180061444860069,-32.930498492995106,0.0013062599900070348,0.001535366698761352,0.0006539145323264664,87266.07582072805,33.49866488902519,-99.33753783542716,1240.1256947846928
4.41,-0.004434189053829294,0.0018613972438469193,-32.89672382396092,0.0006587241914333908,0.0005861814536738139,0.00014092360158823386,,,,
4.42,0.0019372293744416781,0.0003514450236168529,-32.86152340619799,0.001224469985828978,-0.0005650739017452361,0.0003773990793008921,87211.43190481135,,,
4.43,-0.006306664432877295,0.006981061276327754,-32.83141998520369,-0.0012382603997064877,0.0003244203135526742,-0.0008166260799106855,,,,
4.44,0.003385352434509047,-0.000780849628325277,-32.802196964230376,0.0010332491015882434,0.0013241254176481658,-0.00011341916737217456,87156.25804079074,,,
4.45,0.003840596003559533,-0.00026109939564572955,-32.761891554195074,-0.0005935872745680677,-0.0007613103065247502,-0.0004264030636522886,,,,
4.46,-0.003116935094356427,-0.005843713227010113,-32.73330645411348,0.00014585735675659665,0.0020281290878804044,0.0010886304021443872,87101.83590378964,,,
4.47,-0.0025417910531477803,-0.0025905774621074553,-32.706884737836695,0.0002706339345476675,0.00028247589184804173,9.64678167682585e-05,,,,
4.48,0.004383358953198292,0.00785066428624703,-32.67278380820441,0.00011380851634246902,0.0004949056036889414,0.0011908872670812452,87047.47107883629,,,
4.49,-0.00029888635656641685,0.0028168346072509585,-32.65063391363357,0.0006455708726965937,0.0011610660082710218,-5.627279632679476e-05,,,,
4.5,0.007006024536060093,-0.0011040547586327796,-32.61938553251353,-0.0011695396738641874,0.002454400475510432,8.798973145305195e-05,86993.46191385025,33.49861757673777,-99.33762458674012,1272.5803410140136
4.51,0.001094198154466367,-6.894143676079886e-05,-32.59810355793426,0.0009561720381490749,-0.0008498624755387943,0.0012276609164728767,,,,
4.5200000000000005,-0.0013171634386039777,-0.0013506054739510736,-32.5594878459516,-0.00032509285012040975,0.000837924953775592,-9.444605324896936e-05,86938.47450443087,,,
4.53,-0.003809812114028807,-0.0029404748597923287,-32.53737182054398,-0.0001537286477667782,0.0005369598525136988,-0.0008859638496716442,,,,
4.54,0.0007204208313924316,0.0030335375715320476,-32.50556386365956,0.0007875232876394155,-0.00025592897282358877,-0.00102734960838591,86886.29258522402,,,
4.55,0.0026648498915971073,0.0037333726647415556,-32.47411873723594,-0.00019259810835467765,-0.0020583239856760047,-0.0021651835707461593,,,,
4.5600000000000005,0.0014591126667867099,0.0034394314507848393,-32.43234491316419,-0.0011460863956287237,-6.003604196114778e-05,0.0013956159241791507,86832.46262103926,,,
4.57,-5.5129088291856126e-05,-0.0007310797182934778,-32.40527419329188,0.0009276562374007741,0.0009677891497327267,0.0011958777362418894,,,,
4.58,-0.0005083341050452899,-0.0026139752844555916,-32.376753821215935,-0.0002681639358090504,5.5893760593284835e-05,-0.002117155966225581,86778.6933894979,,,
4.59,0.0005447440927883266,0.0017431629744919458,-32.350469005085195,-0.0004154248291747314,-0.0007563706104358672,0.00010919214627376211,,,,
4.6000000000000005,0.005434406891616941,0.0006418279980219417,-32.31088347313733,0.0012005602408302607,-0.000486593302654165,0.0007111682782395247,86725.29895024058,33.49860733777635,-99.33763719450296,1298.2708745022844
4.61,-0.0023474528007419266,-0.004708430969238443,-32.28610717658451,-1.8016484328347977e-05,-0.00011436298168808506,3.6852872782490965e-05,,,,
4.62,0.0063008578202028796,-0.001928012677249554,-32.25804538627137,0.0016312537447820462,-0.0020132820758757947,-0.00090577899480617,86669.88376554636,,,
4.63,0.003569716775466164,0.000499735299339932,-32.22198055535011,-1.5940001940001768e-05,-0.0006315680206766162,0.001754095377562794,,,,
4.64,-0.001694607631753701,-3.131998354658238e-05,-32.189961343414296,-0.00023079759955771514,-0.0002330268378323393,0.0008841150615643443,86619.14487699464,,,
4.65,0.002218261570919234,0.002501149755875452,-32.166387895958195,0.0005259501554174308,-0.0015097867392377723,-0.0007752848228345968,,,,
4.66,0.0037637893251927373,-0.000556372997468951,-32.13228886613678,0.000744680512895742,-0.00025389427026951456,0.0007430540918840041,86564.1870134876,,,
4.67,-0.0021546661307488696,-0.0017665057507080877,-32.10536683606698,0.0009014077322912129,0.0015044467791685467,-0.00026892289661441173,,,,
4.68,0.0024802451749445877,0.006954961279947639,-32.07101748371581,0.00038769126732869256,-0.0008701576102011019,0.0005651356573612516,86511.3292061912,,,
4.69,0.00315823715821936,0.0038639994602274923,-32.043878553724184,-0.0003909209109586746,0.0023502806369541758,-0.0005786094457443778,,,,
4.7,0.0005046852497732668,7.095352208075635e-05,-32.01775400996952,0.00048412719458377476,-0.00020708415164212132,0.000236556025894749,86458.57556657867,33.49863015415586,-99.33764999116393,1316.1491511222353
4.71,0.004575099248296301,0.0010435883929613538,-31.996357076483562,-0.0004295269562494983,0.0009800628467076325,6.09286702856162e-05,,,,
4.72,0.005874220198402362,-0.0012301032086207086,-31.966158780049277,9.728259985347357e-05,0.00010757582361741944,0.0009600858029534916,86407.2341920031,,,
4.73,-0.0027728527771739907,-0.0031608971349713836,-31.94603371461615,0.001999714004155424,-0.0004245168981171022,0.0003785211283918056,,,,
4.74,-0.002511621850654576,0.0010676128969513516,-31.916299456397596,-0.0009507064076377402,0.00033822426500356887,-0.0007664387473706819,86354.40548081322,,,
4.75,-0.00028819962283350655,-0.0024850027893128512,-31.8803777238663,0.002301690106427639,0.00022099197512722089,-2.913722853147061e-05,,,,
4.76,-0.000812798690956755,-0.004951467965255903,-31.8479528270811,-0.0006545233533887029,-0.0007213995772097718,-0.0007795537087822342,86300.98969019852,,,
4.7700000000000005,0.0016792222750340688,0.0012475645648135946,-31.823445275740617,0.000179523893408203,-0.0006739349864701035,0.0011866326130862065,,,,
4.78,-0.002349097198841572,-0.0022762120699265282,-31.78420907057202,0.00037066792776291714,0.0008297857366714826,-0.0017939654771977375,86248.96657861012,,,
4.79,0.0027797707157647257,-0.005122650624884641,-31.75969324285182,0.0009430967414185705,0.001633356191241949,-0.0007823166055210554,,,,
4.8,0.004532744258666618,0.001291593364984984,-31.736158804783724,-0.0011183522372139696,-0.0005311821678588393,0.000273998935088139,86195.83513290767,33.498647899056074,-99.33761843976427,1334.8261940316413
4.8100000000000005,0.0005819476028157104,-0.0009243610676018256,-31.704246754889287,0.00039524020797374054,0.0007001981714661559,-5.860581576215026e-05,,,,
4.82,0.0038659564581979716,0.003909269488985896,-31.679067500789852,-0.0018890255011694995,0.0019456827955498077,0.00016534721929051103,86143.3875375333,,,
4.83,-0.0006499233143178535,0.00520960914287321,-31.642240183788715,-3.495669955521039e-05,0.0002080971499516479,-0.00015969094436555246,,,,
4.84,0.0030642347809196734,0.00010356724501789991,-31.61972253141752,-0.0025656780983390514,0.00038380189539623846,-0.0006849538894843088,86091.50243318164,,,
4.8500000000000005,0.006149952142337669,0.0030376323109233124,-31.58147383801843,-0.0003603179714059877,0.0013067392950432408,0.0014976419296161218,,,,
4.86,0.002154780325627224,-0.0030711599680695164,-31.563241908702878,-0.0006764011745333451,-0.0011110174691549158,-0.00023086975726116507,86040.24761801331,,,
4.87,-0.001623632600093555,0.00661305934781471,-31.52993564840846,-0.0012284373282945103,-0.0018142806529449374,0.0006991466251110386,,,,
4.88,-0.0033231505508196707,-0.005130162050358871,-31.499755101171818,-1.5202121166369523e-05,0.0001437727974252199,-0.0005623098359637828,85988.7736022037,,,
4.89,-0.0033549104902548046,-0.003145001394432682,-31.472089579625276,0.0011486648076356435,0.001082794993838208,0.00033147225128147737,,,,
4.9,0.0028746486801448506,-0.0016301898875661063,-31.446643043944093,0.00023013277215992256,0.0002379322285291352,0.0010054281601804766,85935.99500276135,33.49859288786619,-99.3376458901239,1360.7705166702303
4.91,-0.0009130273970199873,7.228059684069207e-05,-31.42407727849627,-0.0012278415442074718,-0.0019447740955513204,-0.0021764408933201114,,,,
4.92,0.00560925386424644,-0.0016032315955757557,-31.404875186837423,0.00014965073813857452,-0.00047656253284800415,0.0026748583452658745,85885.4518820996,,,
4.93,-0.0016289007638971703,-0.0005092517757509361,-31.382110289533216,0.001208569737643027,-0.0005659075131894233,0.0006074903768988545,,,,
4.94,-0.0010324165224188148,-0.0041056711277399445,-31.352561550401347,0.0006453888428733458,0.0014319535000237727,0.0006836044707822567,85834.31489119843,,,
4.95,-0.0031288014311081865,-0.0038054986751818068,-31.3241819233341,-0.0009356880226899855,0.0022052409884288746,0.00025822813716825673,,,,
4.96,0.0020512348213784916,0.0039001003142358367,-31.293841148231824,0.0010001072930812048,-0.0016180588891316378,-0.00023036032802071775,85782.53609001421,,,
4.97,0.0010128076491868168,-0.0011009520539533046,-31.264493926424393,0.0004507153691913592,-0.0003164186008757552,-0.00019598058763559028,,,,
4.98,0.004495297896674246,0.0021820317956410154,-31.24005977257218,-0.0005171996691830222,-0.0007194436323192252,0.0002929781001868603,85730.57181452382,,,
4.99,0.0036662305021995007,0.005306842412181069,-31.210448653915112,-0.0004824330325560645,-0.00037696389636421843,-0.0007487862462901684,,,,
5.0,-0.002092457628090573,0.000370009045040884,-31.181815593897372,0.00013457715832807906,0.001418955788850285,0.0003061578196012641,85679.69175651559,33.49858937771308,-99.33761274383463,1389.3506063811233
5.01,-0.0008237122728674836,-0.001119027230495293,-31.150939355399583,-0.0013161495139157062,0.0012783200920720487,0.00012287529425121773,,,,
5.0200000000000005,-0.0028995277465079065,-0.004441446271048897,-31.119215721451557,0.001426279720253241,1.817845111631907e-05,-0.0003477786254522872,85629.2336571398,,,
5.03,-0.004342396054624748,0.00232815870851719,-31.095469788361623,-0.0005046875802632846,-0.0008679737119726201,-0.0005920216936400675,,,,
5.04,0.00129927593183142,0.006561504886740751,-31.076497538730155,-0.0011202167787493244,-0.0011000554861559887,-0.00017614204903622797,85578.09524936067,,,
5.05,-0.0009485285446128749,0.00032572300281768536,-31.05429469617036,-0.0012199063848981854,0.0010709379040015684,-0.0012687973816113717,,,,
5.0600000000000005,0.0003214812835413929,0.0001268758113412895,-31.02608520325487,-0.0011117656596417152,-0.00047064393600849605,0.0008708989683606799,85528.85470774549,,,
5.07,-0.000390064021938308,0.0016498636705195072,-31.00592349123739,-0.000963224450129248,0.0013120923741335448,0.0019264003932349995,,,,
5.08,0.004377511107395339,0.0019572150390011565,-30.97528127247608,0.0005746024079933452,0.0009515287323578467,-0.0015582518655700213,85476.39514774574,,,
5.09,-0.006169014970572993,-0.005662630046381639,-30.948706908256558,-0.0008327867336229424,0.0013303118536096268,0.0001601214719792282,,,,
5.1000000000000005,0.0005225389725024986,0.0028961044144184237,-30.921276157694862,0.0010915865564844487,-0.0008904322958355354,-0.0014342532797744561,85426.72281023924,33.498644105638355,-99.3376556939899,1415.7054055798394
5.11,0.0010586669280127847,0.005601184037321969,-30.89595300410486,-0.00013221062279510315,-0.00033276893018680876,-0.00011295308136631608,,,,
5.12,0.0023738991565711402,-0.0017044426462083995,-30.864506012910926,-0.0005750966352375996,-0.0002703227853529457,0.000549322697669353,85376.0410391522,,,
5.13,0.0012601410459276421,0.0031780394738256516,-30.840389669523116,0.0016419841945995474,-0.0016006487631298634,0.00023493552767850134,,,,
5.14,0.003322127941301478,0.003903323288272018,-30.81889712470833,0.000821122732223602,0.0009267944242077665,-0.0015779080257019797,85325.08124465574,,,
5.15,-0.00103483165143274,0.002872371127075353,-30.793165460358424,-0.00015589490794726157,0.0013743413224350965,0.0011501243378643454,,,,
5.16,0.0004063615963291255,0.009594709138337962,-30.759274295216333,-0.00035284924117862186,-0.0009241826029199196,0.0001217923861307009,85274.96016033702,,,
5.17,-0.001991977826212899,-0.0006705397512304442,-30.741328128259735,-0.0003900144146768571,0.0011201862279397795,0.0005873989754049149,,,,
5.18,-8.46593887436679e-05,0.0019247294302226123,-30.721357023875665,0.0012667450220199535,-0.0012840269734950907,-0.001840983214883922,85225.62386983592,,,
5.19,0.003035767003285564,-0.002477434236374566,-30.685238512979396,-0.00033308651441927136,-0.0005550782815100768,-0.00014555329090926985,,,,
5.2,-0.0011442353251289472,-0.0030483179330217814,-30.666097140770972,0.00132055707173871,-0.00010437449911671229,0.00021519229534567767,85174.7943293022,33.49869978657084,-99.33759176584174,1441.0424498393381
5.21,-0.0016899964216376881,0.00022124538759027535,-30.642900893293014,6.848286239188848e-05,-0.001240579674960262,0.0004842916972166755,,,,
5.22,-0.001169168378715047,-0.002599209157583378,-30.623500930141095,0.0002019507515650503,0.0008218650785541174,0.001500726241601601,85124.5769983924,,,
5.23,0.0011573548823158905,-0.002463572739737781,-30.59798242321017,-0.0007792629425565841,-0.0007935674570948275,0.0014036837914790667,,,,
5.24,0.000971915403231982,-8.94456631277589e-05,-30.57265567294095,-0.0006442366741143514,0.0006705688079052672,0.0009982422764929803,85076.88623131547,,,
5.25,-0.004066585919518817,0.00013494972540396312,-30.551659116735472,-1.3215108615334993e-05,0.0007964475164668094,-0.0006085137950169744,,,,
5.26,-0.003025208906592796,0.0004954264295402255,-30.52999013913617,-0.001143029456932206,0.0018621775526442088,8.828723609510265e-07,85027.15343183838,,,
5.2700000000000005,0.0038129810317756915,-0.0017463222704028004,-30.499851746039063,-0.0003163464786486058,-0.0015887326627091736,-0.0014361043982655758,,,,
5.28,0.0010519360504604794,0.0026120778408649688,-30.47524096136059,-0.0017316683809856976,0.00022799505470518622,-0.0023050594070021207,84976.35843834911,,,
5.29,1.630190502627199e-05,0.0008771469623016854,-30.44683326825472,-0.0006205464373827233,-0.00038130370439178887,-0.00011876172872982835,,,,
5.3,0.003446066833808164,-0.0030885835892222567,-30.42675112976473,0.00015888628081331911,0.0018598583016071664,-0.0003628756789321472,84926.35430676956,33.49862657059501,-99.33757874446124,1457.6307449347498
5.3100000000000005,-0.0035753350535830536,0.0027424813790328686,-30.394095535793802,-0.00031568415243179483,-0.0003602114446055663,0.0014771345855551347,,,,
5.32,-0.0003382919837231157,-0.0047840070568918374,-30.370023046056215,-0.00021758122455782126,-0.000445302640096555,0.002064147519241803,84877.4644747967,,,
5.33,-0.0028858911245478974,-0.00518490894281165,-30.33954067689514,-0.0006315473286699423,3.487638892957821e-05,-0.0013513724456297638,,,,
5.34,-0.0020480648331058448,5.4450987297086366e-05,-30.315602429458554,0.0005404440870883899,-0.00023769571918281568,-7.614594831945775e-05,84828.24068101919,,,
5.3500000000000005,0.004523823792479047,-0.000978057637900562,-30.29037633263465,-0.0008617390542649682,0.00021164288748386963,-0.0012262870141264448,,,,
5.36,-0.0005364576017793835,0.0023524960976547397,-30.27328869577644,-0.0004331824268443376,0.0019021528664896223,0.0007668923408586352,84779.2779164545,,,
5.37,0.0011669790614455757,-0.005084977786177584,-30.24621508856696,-0.0003257849124560655,-0.002586620668184414,0.0007097979544649996,,,,
5.38,-0.0029136287154042763,-0.004331941756140964,-30.237163264153917,0.0014219876057828525,-0.00074436406610118,0.0004857994586826487,84730.60189937631,,,
5.39,-0.00043426268274216476,0.007589782133805265,-30.21203063703566,-0.0005113510121124233,-0.0024149444243908714,0.0011510418108102516,,,,
5.4,0.000316740242638022,0.001628234363955611,-30.18619523553068,-9.335937212308834e-05,-0.0012165656185421081,0.0007119962511514927,84682.5514446145,33.49862677146995,-99.33757860420619,1480.294840042983
5.41,-0.0020412578640322003,0.002717155491464832,-30.16179695800224,-0.0008846498429215181,0.0002615173312291861,0.00048607466552154984,,,,
5.42,0.004034144933274112,0.00111291869657046,-30.141303301928225,0.0009299164304204033,-0.0002625151860285336,-0.0007194762639936238,84632.13092790583,,,
5.43,-0.0012238634104758982,0.004765007884088251,-30.10985787927831,-0.0009737158989865111,-0.0003173783194520039,0.0008919985445882387,,,,
5.44,0.0026506928207596574,-0.0012221103133778033,-30.08997867902103,-0.00026802772423051345,0.0011124921769208249,-0.0008609435092789054,84583.76317220405,,,
5.45,-0.0040363373924960436,0.0030924818029357103,-30.056342193038947,3.459042181793181e-05,-0.0006728755850076856,0.001025284417765836,,,,
5.46,6.982788541424903e-05,-0.0024107014201775845,-30.037503953990523,0.0012318236068372607,-0.0008594841953830992,0.000489864429531093,84536.35898986361,,,
5.47,0.0021669336763860585,-0.0027887812169491866,-30.012325076149235,0.0004590591277134699,-0.0008424319449008561,0.0012063200514626246,,,,
5.48,0.0023453461030125207,4.243149432140981e-05,-29.987052519416785,-0.00018906151783767625,0.00038219269320196306,0.0018799887039924934,84487.61251455727,,,
5.49,-0.003391460881694038,0.003911062302169883,-29.960417286777993,5.063114503754988e-05,-0.0007216929058797663,0.0006060961473118099,,,,
5.5,0.0031329985583780987,0.00017711722300827143,-29.933831860860973,-0.0025119293028341844,0.0007956564444277109,0.0008152595323550502,84439.08601038365,33.49860590284146,-99.33764617311014,1508.9018266838812
5.51,0.000533576974727432,0.0005497200743863966,-29.914867496670038,0.0005769534478824037,-0.000964355597526348,-0.00031945950503171016,,,,
5.5200000000000005,0.006800499859928619,0.002050053886584178,-29.895861329629493,-0.0023874510583711053,0.00046711768401425455,-0.00046883319490953625,84390.59960225175,,,
5.53,-0.003368415531648092,-0.001368705063711948,-29.87833151106233,0.002732754973627204,0.00011219708041215217,0.001321702547712935,,,,
5.54,-0.00021637920696248293,-0.0004873032465044201,-29.850171736972587,0.0006932301039365303,-7.603168424195626e-05,-0.0019204847739145868,84341.98270005734,,,
5.55,0.0011617901145131546,-0.0004488539592220785,-29.826490372169015,-7.177457081325195e-05,0.000909614316711587,-0.0020662751430054823,,,,
5.5600000000000005,0.00036874751365463624,0.006722398553061719,-29.798696983628314,-4.904217710581279e-05,0.0007168357623923252,-0.00015567731355347936,84294.38686140318,,,
5.57,-0.0006468487620753507,-0.008167591221924798,-29.78169027044815,0.0010262733587395475,0.0012914146026829386,-0.00033524966626293027,,,,
5.58,-0.0016449605785327144,-0.001723925003438687,-29.763079289423196,0.0020500662542252174,0.00011090210955919684,-0.001121196716785239,84246.79170434363,,,
5.59,0.0030715524420774545,0.0036717929206167162,-29.735675369235313,-0.0002137525762485272,0.00021143183644643738,-0.001110177563899509,,,,
5.6000000000000005,-0.0027183943233056065,-0.00016518540593306877,-29.715408412883505,0.0003387198862373529,0.00014087803838427955,0.0006869973196675929,84198.69412363315,33.49866936923021,-99.33761088179234,1532.9060117043955
5.61,-0.001532620265482193,0.0001616309885546408,-29.696026868946475,-0.00014704131807289055,-0.0008578246462919535,-0.0013488227841385422,,,,
5.62,0.00278075088502417,0.00647249514264618,-29.677862072155836,0.000397581916406072,0.0012469396343274776,9.010550154183097e-05,84150.26314938032,,,
5.63,-0.0013307000710040956,-0.0009759644892842111,-29.654846604244156,0.0004111968379555707,-0.00018343093546346678,0.001635808110792314,,,,
5.64,0.0034011840162684348,0.0017197856961813516,-29.63449552628182,0.0007902002661144303,-0.0010081573839654358,0.0013065639224881024,84103.35456345536,,,
5.65,-0.002068244568144083,-0.0020047644502354804,-29.6091232886095,0.0010089572200543356,9.636657941955928e-05,0.0015809287374465202,,,,
5.66,0.006621949311702668,0.002207406202173962,-29.589830931294856,-0.00036903274028396525,0.001085701768735851,-0.00028952212596571546,84055.88647846034,,,
5.67,0.0021811779439729942,-0.003872085870654914,-29.554264836984476,-0.0005901012659301247,-0.00033773483102341703,0.0005853806888434447,,,,
5.68,0.003494276323159616,-0.0015939380170291336,-29.5341409361655,-0.001463606888948061,0.0004989292436309341,0.0019670841985503862,84008.32556078538,,,
5.69,-0.0016374122452033626,0.0002222675731209159,-29.51205064267715,-0.00020502933110120021,0.0006716028847299185,0.0015892190379478018,,,,
5.7,0.0011323506310572005,-0.0027799224533172425,-29.492018727528446,-0.0015487655376002333,-0.001660649060383964,-0.00011007006709263679,83960.96737871358,33.498554845505346,-99.3375741064911,1556.6183018491588
5.71,-0.0002851699672496292,0.0006347586496862681,-29.468649014615544,0.0008789552500502034,0.0001929463347832954,-0.0006867282421448149,,,,
5.72,0.0006121919951023793,0.0030011997845073306,-29.443830136132174,-0.0015288447329108719,-0.00017635837881393575,0.0004920453140820521,83914.18288739219,,,
5.73,-0.0008473499756949197,-0.002180223157344206,-29.417389129415458,0.0012901622811825127,0.0008274245890732339,-0.0018341707500656513,,,,
5.74,0.0002462802816072011,0.0006802725599463678,-29.398734897192828,0.0012712793270663297,0.00023574818315311857,-0.00035963382713421305,83867.87554001265,,,
5.75,0.002118100521300217,0.0027431037414032745,-29.378101831092394,0.000536171923460289,0.0009694673443595433,0.0006758559250231123,,,,
5.76,0.0011823717050133326,-0.0020083939080352193,-29.361895101897602,0.0012405555820992143,0.0016601179755479604,-0.0005345158159401107,83820.04495118036,,,
5.7700000000000005,-0.0010825260508120983,0.0020275376458700413,-29.337033392659023,-0.0007133895987634177,-6.435968381496858e-05,0.0009821942091612912,,,,
5.78,0.0010676981291142845,0.0016063220511839435,-29.32114304925133,0.000680840255957459,-0.0005336493138306028,-0.0004795678637973338,83771.52936727167,,,
5.79,0.00023099492774951877,-0.0010557424241183413,-29.30286540371323,0.0006277646619468023,-0.0009460610617762657,0.001390967479776991,,,,
5.8,0.0012036053678962683,0.0029596321312101857,-29.283058088377093,-0.0009331540733567557,-3.538924423200686e-05,-0.0009522457401382214,83727.0121550771,33.49865390887458,-99.3375793269944,1578.209295547769
5.8100000000000005,0.003210611799450251,-0.0005448498849931566,-29.257943278900587,0.00023721706891731986,-0.00015261092054882406,-0.00042528963085148913,,,,
5.82,-0.0005671495022479892,0.001955048629632819,-29.233880704088936,0.0002723963698898496,-0.0009204010989760039,-0.00023160768618911385,83678.57353813636,,,
5.83,0.00153041966953213,-0.002911146122961672,-29.216828477155207,0.0005494398736514542,-0.0009198097659767619,0.001062647838426083,,,,
5.84,0.0027268233684446482,0.0011037503168299814,-29.18931564294679,-4.2636672256614264e-05,0.00038732091154850896,-0.0003172841513624467,83632.75993514726,,,
5.8500000000000005,0.0030528115274779887,0.0047380732954945045,-29.171419743271894,0.0003616549697969441,-0.0002380995836567953,6.0758899178488046e-05,,,,
5.86,0.00048387426975663003,0.0009475882775194565,-29.15168550941883,0.0008085837288085528,-0.0006451580474467429,0.001146841320273381,83586.21767402066,,,
5.87,-0.004040021131120214,-4.711803737674907e-05,-29.137055958421378,-0.0012605972235299094,0.00041536429536061817,0.0006226672407231523,,,,
5.88,-0.0029497106279900227,-0.001532844125919989,-29.118202007637773,0.0011373148325212726,-0.00023494489645476823,0.0001711832604060301,83539.94573999908,,,
5.89,0.003901990717255182,0.0006446867304899407,-29.096938221241906,-0.0003137803883454245,0.0004555524547560048,0.0005062130757626342,,,,
5.9,0.0032867204750066906,-0.004867149107015158,-29.07650389179796,-0.00010489647137721804,0.0002790861985239643,-0.0005655422387472387,83492.73574721189,33.498623008081836,-99.33763147590095,1604.1899097527953
5.91,-0.0008285717787940056,0.002228025112551898,-29.05119533338917,-1.3801143025130128e-05,-0.0011568242702616367,0.0009212610084691191,,,,
5.92,-0.002001559700514039,-0.0034081296588464125,-29.023519474223757,-0.001352762522103527,-0.001845865293838109,-3.332408554288272e-05,83446.09941114673,,,
5.93,-0.0027182697671732825,-0.001466462118529832,-28.999084542395366,-0.00014288626071400749,0.0005750286540191999,-0.0014579618281178955,,,,
5.94,-0.0005656853880816998,-0.0019973930944914018,-28.98590520352588,-0.0007537889973946393,0.00011278752666159589,-0.0014766980021529892,83400.51766477805,,,
5.95,0.0041536243987117085,0.0020239246839333304,-28.965016683023062,-0.0002738296246035603,0.0008621933901647821,-0.00127945434270485,,,,
5.96,-0.0014719310100048224,0.004732884258358819,-28.945816215675375,0.00019381279045456733,0.00036488886084377604,-0.001972220119190218,83354.75088229605,,,
5.97,-0.0074472648326204885,0.000685638861126398,-28.92858492593833,-0.002440026415043299,-0.000227032310801714,0.0002836976295482152,,,,
5.98,0.001831309629130549,0.005557408746608084,-28.916590938288298,-0.0012693116657720948,0.00019371944956630117,-0.0003551125878405835,83309.09495045032,,,
5.99,-0.0014322476453680981,-0.004162940455414663,-28.891695036854728,-0.000997015647335865,0.00044292660539882754,-0.0007566662545931866,,,,
6.0,0.005094819246998897,0.006204639300577608,-28.873229291010638,0.00016266502947686291,7.421082606369832e-06,-0.001068643900455203,83264.03873764043,33.49864968795052,-99.33760117760744,1624.2041547426268
6.01,-0.0014411391490333795,0.0013977270717332982,-28.85189743670269,-0.0002907241616173223,-0.0006274683570851949,0.0008712948714992412,,,,
6.0200000000000005,0.0034527115224968876,0.0010724442902225705,-28.8241856492278,0.0011701556003224894,-0.0010024726375048307,6.950177576151165e-05,83216.12089077708,,,
6.03,-0.0028735951895912117,-0.005333347867634704,-28.80200039556242,0.00047218343273649116,-0.0010255955025603126,0.0011805791505210598,,,,
6.04,-0.0050854750431660566,-0.0005799241863174207,-28.78773468618858,-0.001096397837462746,-0.00030378150025417406,-0.000335249304080149,83172.75319743362,,,
6.05,0.0018889884944013526,-0.010460181193617123,-28.75948481108756,-0.0017094210056384763,0.0004539221531147306,0.0011115783171931487,,,,
6.0600000000000005,0.002416887081837233,-0.0030109301844498107,-28.74910185817114,0.00048222251029721234,0.0010942656752687139,-0.0007854022524316674,83126.69182757371,,,
6.07,-0.0016442143367508427,0.006979008135528804,-28.726122145479287,0.0005640003118923421,-0.0003868840480180027,0.0008692111891176824,,,,
6.08,0.006594911280790493,-0.00025114334003911167,-28.71166241891577,0.0008727828732036306,-0.00040236277945260144,2.3677207434646436e-05,83080.81189300852,,,
6.09,0.003027325439981622,-0.003401180188260961,-28.694908742116738,0.0019139617269610637,-0.0013532601641119573,-0.0005484731439771147,,,,
6.1000000000000005,0.005364874127964389,-0.00355873910081153,-28.673975441897333,-0.0010165583751932847,-0.00017792397431663762,-3.062189870600298e-05,83034.88722872564,33.49860041795813,-99.33764138594113,1639.3349969180813
6.11,-0.0026208802109455357,0.0019114117077578259,-28.65295111621569,0.0018628090464933597,0.0009752040127234213,-0.000641423127486313,,,,
6.12,0.0037599850582946395,0.0001846827265267408,-28.63191236297954,5.3907253753072575e-05,0.0011440280687060518,-0.00023127551600843306,82990.6478234277,,,
6.13,0.00020982722485155228,-0.005177020919217007,-28.615170423674808,-0.0016635232228202036,-3.822203944644327e-05,-0.0010818538875610433,,,,
6.140000000000001,0.001447139626441617,-0.0029183246033849353,-28.585720893395596,0.0016147179794578348,0.00021490565466052408,0.0010266970016286653,82945.69724700175,,,
6.15,-0.0034111059190937735,-0.0014455506930725823,-28.566286402619323,0.0001825002516013757,-0.00026202480510060047,0.001515918925667988,,,,
6.16,0.0012246797419239387,-0.0006225662324999204,-28.552533374010466,0.001191757879290234,-0.0002966056671124136,0.0003911528084342481,82898.65648821414,,,
6.17,-0.0019993893758276115,-0.001298491408768733,-28.534560716834246,-0.0002803382282923413,0.0005542912256523837,-0.0004004678410758393,,,,
6.18,0.0005168441060453722,0.0013127420396945992,-28.50912198056134,-0.0007679311148349544,0.0004044556713583693,0.0008131783318685629,82854.56693604354,,,
6.19,-0.00538695953948064,0.005969348258354568,-28.50034051382098,0.0010252673408620355,0.0011148648839441006,-0.00018536883361823723,,,,
6.2,-0.003321434798058768,-0.0005197897364045256,-28.480024379851482,-0.0013309549656043292,-0.0005254758966097294,-0.0014972512090704652,82809.77874585995,33.498631347229946,-99.33761636577702,1667.1303838861782
6.21,-0.004341474762729001,-0.0014282577234888722,-28.454723213554875,0.0002727797134430949,-0.0008177192056228925,0.00016856874120457134,,,,
6.22,-0.0009346992829201307,-0.0014251415696174465,-28.439624796645123,0.0002605674750247104,1.1298474926324236e-05,-0.001264915491586882,82766.07084152386,,,
6.23,-0.0073609515929496565,-0.0008663205910252648,-28.414560592671197,0.0009542835011680275,-0.0007460745225597098,-0.001749243166938232,,,,
6.24,0.002678486714163798,7.549421512245925e-05,-28.388648825363315,0.0012241964614440885,-0.0012434293624553126,-0.0009035935487755758,82720.05601832805,,,
6.25,0.004857852510429044,0.00042281959201828266,-28.378032346412986,-0.00027562732815288694,-6.706592858152749e-06,-0.000817305697872144,,,,
6.26,-0.0008246449841392154,0.0063700612926807535,-28.361513879889525,0.001851242966322018,-0.0009928150731201085,0.0026442209175918958,82675.93886834636,,,
6.2700000000000005,0.00304255720907072,-0.004730044585178239,-28.344966928459705,-0.0018011617438534687,-0.002002973825692363,-8.20192455229678e-05,,,,
6.28,0.0001856371687540002,0.0021000501231743973,-28.32897341567663,0.0006569867228692455,-0.0003677879771705709,-0.0007985745192636074,82631.28023915117,,,
6.29,0.007530719007516274,0.0035132645127837667,-28.315049333694553,-0.0014745093040847343,0.0010853666281315276,0.0007898332481560626,,,,
6.3,-0.0060723235668986705,-0.003950156306334703,-28.291483739543978,0.001775865773833939,0.00012121032273445522,0.0020459337561105667,82587.15242759718,33.49864137631059,-99.33755098580589,1693.6244098311583
6.3100000000000005,0.0018333954665203187,0.004330580457917226,-28.270999543904573,0.00016886610022693745,-1.2088541220898046e-05,0.0006849177313484674,,,,
6.32,-0.003187453264144594,-0.0012854437087351088,-28.24835136460647,-0.0018654674447603162,0.0018227025123822862,0.0001138284886120356,82542.98548715029,,,
6.33,0.0006350231850957736,-0.0004620203319285596,-28.23020628111764,-0.0004006382380413636,0.0002608777114740541,0.0013733939927384105,,,,
6.34,-0.004857359608460261,0.0008357017678107567,-28.21710253603837,-0.0018108216757302263,0.0017538565139534883,0.0005790123957546337,82498.9581125318,,,
6.3500000000000005,-0.003926283324219986,-0.0015228085296934855,-28.19115931040828,0.0003853870248961444,6.06650784774218e-05,0.0009550885547917091,,,,
6.36,-0.001172530016761108,0.002392806840028892,-28.17334635064537,-0.001434714455437212,-0.0005307557138132846,9.61705950307976e-05,82453.29719946414,,,
6.37,0.0014875004516818958,-5.65360042055753e-05,-28.158594715484902,0.0007944460812460645,0.00043206986580166895,-0.0007003355574700733,,,,
6.38,-0.00015829630660278452,-0.0029013595215945636,-28.137700275659444,0.00014719408838834324,-0.001914472291573942,0.00030513281845475195,82409.96431224686,,,
6.390000000000001,-0.0010370611861883871,0.0014456091680328403,-28.12988947729195,-0.0012255125147946004,-0.0019369016871801212,-0.0006251169530967408,,,,
6.4,0.0009270254243630021,0.006168117634830668,-28.10833447778039,0.00021999875797197406,-0.0015972653123047327,0.0013565857784894864,82366.84231189721,33.498622994552356,-99.337624222545,1722.096743965483
6.41,0.0018869854076278836,-0.0013611586437936036,-28.09081829179932,-0.001106236799251588,0.0022520173855423405,-0.0011666181907572808,,,,
6.42,0.003915636086223879,-0.0016881242414552458,-28.06325820068098,-0.0010235806585673275,0.0005009469265586078,-0.0003613758998832199,82322.4315358721,,,
6.43,-9.088725095546412e-05,0.0013085291052727357,-28.0460707829102,-0.00044496485157917946,-0.0016638770711408038,-0.00047570908004747564,,,,
6.44,0.0008461898945566934,-0.005901094217352329,-28.0278183161759,8.554106586336508e-05,-0.0011440626024001698,0.00020755042092765954,82278.31775869065,,,
6.45,0.00012836572257397247,0.005153953095660629,-28.011016911499897,0.0001351735834194081,-0.00014321932488498755,0.0004388138523517916,,,,
6.46,-0.0005365454242947809,0.0031695905011664043,-27.99318012694077,-0.0014545488880142242,-0.0003101670207082333,-0.00014662546383801915,82235.3627626677,,,
6.47,0.002688344712246788,0.0015447824498411899,-27.97721743489867,0.001556667856035237,-0.0008735542080171914,-0.00024384588821472117,,,,
6.48,-0.005536846709036859,-0.002354414065473696,-27.962145453818703,0.00039462803900129357,0.00021950912475888744,0.0026396200242052993,82191.34018932385,,,
6.49,0.00220835162274572,0.0034575976373129795,-27.946514785272306,-0.00028749153763594164,0.00031109308387432293,-5.68664953369643e-05,,,,
6.5,-0.0011362984997834895,-0.0022186183406167257,-27.93345968167642,-0.0016401776535250505,0.00016137793817531227,-0.0005930328340364048,82148.63204754595,33.49865999642219,-99.33761396085805,1745.0905064745166
6.51,0.005081636283776047,3.53309266695151e-05,-27.905681142297848,-0.00024333367182502628,0.0013979677212484132,0.0007281760393511913,,,,
6.5200000000000005,-0.0033300608528710612,-0.0014361175614005515,-27.89325784431888,0.0006914820658524234,0.0011181609147553576,0.0008297884308150043,82103.60706009538,,,
6.53,-0.000902821018997655,0.004657830930508954,-27.867276009456955,-0.00022494427563211658,-0.0010325955520533595,0.0005411114475894005,,,,
6.54,-0.000356578641556073,0.0008398931129459401,-27.849459938854455,-0.00035644229025099387,-4.7953512304373673e-05,0.00010924953968409884,82061.94510849811,,,
6.55,0.0038886935072579743,0.0024930369954427054,-27.831703391643458,0.0006970239938547513,1.7363205171186748e-05,0.0002989405431830586,,,,
6.5600000000000005,-0.0011849208263187225,0.0024747420465032455,-27.81966464578726,-0.0033308617795467874,0.0018382529279284774,-0.002163549070096279,82017.88305074931,,,
6.57,-0.003864394557173802,0.0022666352726199625,-27.79621810338292,0.00036815489579248705,-0.002700419640920701,-0.000748731511234263,,,,
6.58,-0.003770995406818798,-0.0014307101905374248,-27.77771081262753,-0.0011513939571932827,0.0005906835645700713,0.0003674059595872611,81974.68601490432,,,
6.59,-0.004229379766019849,0.0019676833206323033,-27.769622902638652,0.0006959089874436546,-0.0010229373307943262,0.0017576422191905713,,,,
6.6000000000000005,0.00037619099791093936,-0.0037660062656938668,-27.75449633767354,0.0016988555444360266,0.0010408237732091549,-0.0003904590521263028,81932.0802333297,33.49860182357968,-99.33760144218334,1751.814927252482
6.61,0.00343640573234794,0.0032132465877070565,-27.731022816030713,-0.0011012375563582146,-0.0007965059755099649,0.00020628111029554803,,,,
6.62,0.003667152961200896,0.004080513809267003,-27.709487820451624,-0.0011061448573672689,-0.0003705952524283913,0.0005413155146909258,81888.41370308309,,,
6.63,-0.0031837972222302576,-0.0019842612881065492,-27.70102201322764,0.0020081431160771115,-0.0009213699885407025,0.000542024258311618,,,,
6.640000000000001,-0.0008947302640477086,-0.0013876437497439957,-27.673197070229723,-0.0003074119555562699,-0.000664077496642275,0.0006555544731729197,81846.39739965327,,,
6.65,-3.0198742770587486e-05,-0.00021494866555069275,-27.657716574602244,-0.001994341000327587,-0.00030993407631436687,-0.00048803309159323416,,,,
6.66,0.0001058802954524888,0.00786083404435477,-27.63966339349981,3.6144790516457346e-05,-0.0006575913011617019,-7.440476945454035e-05,81804.28142605761,,,
6.67,0.0012399316361680324,-0.00202773576676943,-27.624998422382998,-0.0008275663509972796,-6.260731028260028e-05,-0.0008991784587035886,,,,
6.68,0.003244805201914776,0.0023398297476651263,-27.608738334152843,0.000295180698504286,5.1726903162735774e-05,0.0021956066754162066,81760.43297660197,,,
6.69,-0.0029389408953478875,-0.00010147176460976498,-27.599603778687097,0.00024173273575446786,-0.0006860888009719207,0.0009035089375069693,,,,
6.7,0.008201399038779734,-0.004237979489117367,-27.57617755252126,0.0016911418530899773,0.0009844869499944676,-0.0013059971735705413,81718.21388786624,33.498603265497735,-99.33762393385237,1781.7735121290375
6.71,-0.005967228645196896,-0.0010883985737857032,-27.56071176637705,0.0005538791113293373,-0.0018938962123897889,-5.516913007243699e-05,,,,
6.72,-0.0009771642957908347,-0.0009395185900602748,-27.540703747249722,-0.0006421156006157447,-0.0001963672904803943,-0.00038415583242856814,81676.14938953822,,,
6.73,0.0017111877112918588,0.003412167928115695,-27.528465773412808,-0.0004987301736076776,-0.0008936664451805758,-0.0004453270380381516,,,,
6.74,0.0013059239700511367,0.000769165167078007,-27.506727636921653,-0.0001666222002197112,-0.0008862561707113436,0.001601108723937176,81633.80229125769,,,
6.75,0.0018159050177684905,-0.00042573458064193697,-27.489567650423027,-0.0012313606300871022,0.002100226005899551,-0.00025524117149616516,,,,
6.76,-0.004247329487105527,-0.005236847371258535,-27.471396289631688,0.0006962053045975762,0.0007812345038673813,0.0007214197687080201,81590.78259557387,,,
6.7700000000000005,0.002291866225060075,-0.0010820294611351912,-27.45265514596187,-0.0005456461159018751,-0.00014767114355108157,-0.0002330456323501327,,,,
6.78,-0.0011622881995822386,-0.0029736856416983665,-27.4450415800992,-0.0009454668921937149,0.00015775026426846972,0.000946346352921039,81549.92514918443,,,
6.79,-0.0004047605181535544,-0.0016749205278250648,-27.432067546874137,0.0021694870535156046,-0.001261795839156571,0.0007471041748006591,,,,
6.8,0.003072508295499785,-0.0005435487726067633,-27.414445513528577,0.0002395291883734733,-0.000973894341104016,0.0001379202089967052,81505.78739954608,33.49862337390764,-99.33759759731063,1803.4090445923641
6.8100000000000005,0.0026952503449887144,0.0006316514190358175,-27.3924007193567,-0.0010146819189049963,-0.00030402950166840006,0.0029785840613074364,,,,
6.82,0.0063944195822501475,0.002793532871484392,-27.37590376840487,-0.00012092823427346932,0.0011667924771527221,2.49465724467034e-05,81465.54686388682,,,
6.83,-0.004969264937708995,0.0016525775244981401,-27.355849314236174,0.0012252435548467473,0.001013087674726378,-0.0005023595727943976,,,,
6.84,-0.009392679766666903,0.004391448532663996,-27.338625843212526,0.0009176871180795306,-0.0009078917519882547,-9.848069884399079e-06,81422.59563100606,,,
6.8500000000000005,-0.0015008595608057658,0.005902972655955312,-27.31630869375086,-0.0008488669763678173,-0.0005710889810041494,-6.588644267244274e-05,,,,
6.86,0.0027964857345467854,0.0009275268534238123,-27.30780743416572,-0.00031482283894413663,-0.0014207946289474058,-0.00053697514385229,81381.65493525425,,,
6.87,-0.0023037697486031914,0.005252464871630246,-27.294540326283133,0.0008628684213507154,0.0008342759248270806,-0.0008704705029036933,,,,
6.88,-0.007345657734228528,-0.004025843192875928,-27.275471901071835,-0.0010708935128407168,-0.0009831548978570864,-0.0012517749943752752,81340.22532382915,,,
6.890000000000001,0.004835532606101854,0.001273393257413066,-27.25810165268033,-0.0003695556423314206,-0.0006529169627573836,-0.0024712167015432363,,,,
6.9,-0.001789372154497841,-0.0053936645923837725,-27.251712890062645,0.0017674414206013036,-0.0003119816813593874,0.0007559659079801726,81296.68496617515,33.49863352652021,-99.33757612919194,1811.2154520118272
6.91,-0.004258216266230678,0.0024100278426857566,-27.236435558628195,0.0006641134688990741,0.001185539974033238,-0.0008375928357699001,,,,
6.92,0.0044327010716897295,0.002316731451674629,-27.226308777640398,0.0005843455667918848,-0.0009681103358932637,-0.00027075196160740325,81256.00743885808,,,
6.93,-0.0004895362992895847,0.0050649798917829945,-27.20533434753296,-0.00016538615386871205,-7.508628565565627e-05,0.0005315999358714952,,,,
6.94,-0.002599514678134451,-0.000642195631150879,-27.19272370800638,-0.0007343120700096478,0.0006415536899330473,0.000612264678576592,81213.26190707111,,,
6.95,0.001530636127706999,0.010715566862878117,-27.175281580757957,0.000969362145853221,-0.0017551557572484727,-0.0009826888501476194,,,,
6.96,0.005112975978357219,0.0009124612735279296,-27.15995206990012,0.00017352037736807283,0.00025559565996863064,-0.0003637575341675448,81173.39757869623,,,
6.97,-0.002813817812093028,0.0012645820301440758,-27.14054401928412,-0.00046137952958950294,-0.0007666424935134163,-0.001429482119229947,,,,
6.98,-0.0015424840505081612,-0.0031882571691120437,-27.128402384317386,0.00011119494674390146,-0.00030656352738720095,-0.0011065204419559967,81130.9579010103,,,
6.99,-0.0018140230208659436,0.002504408993230418,-27.104453517298776,0.000498255026928853,0.0016491900294616723,0.0008015014462653052,,,,
7.0,-0.00022280209368818972,0.0011962890137929402,-27.089964991615677,-0.0005212834044640986,0.00032292521582310044,0.00016781618224186474,81090.68305363746,33.498623137221635,-99.33759507738824,1836.7593870780952
7.01,0.004906911429267562,0.005149331989116382,-27.078344207487874,0.0018355364849300443,0.0005164062342340709,-0.0003083494043772766,,,,
7.0200000000000005,1.5874459767451454e-05,0.002221132079216709,-27.06184946640213,-0.0009560162345975844,0.0013711699175812332,0.0003957802657830732,81047.93770238072,,,
7.03,-0.0011533220867640081,0.0013697933949057025,-27.045922675649027,-0.000528424724814111,2.85072476547009e-05,-0.00048404296111260645,,,,
7.04,0.0011035390857895681,-0.0019024654650836065,-27.034587578389893,-0.0005749919742826881,-0.001335562128128443,-0.0004064055258823936,81008.069062721,,,
7.05,0.0028901619334080423,0.004830758476555801,-27.01867945894641,-0.0006174298769545226,-0.0005993446837020132,0.0003892860851367924,,,,
7.0600000000000005,-0.00022038934071917312,-0.002848997208928739,-26.994565901627066,-0.0015636202578393587,4.1582989810664505e-05,-0.00163154509351963,80968.45406123334,,,
7.07,-0.006161562374425682,0.0007710076621479755,-26.982955011824615,0.0009831546608680356,0.0008001502330587876,-0.0012683008282226697,,,,
7.08,-0.00010737927724933179,-0.0036757004313421283,-26.969025942616188,0.0007966170432738947,-0.0015072004660212958,0.0014434204334146461,80924.75446746123,,,
7.09,-0.0023805042579545404,0.0015423648371010498,-26.943250908500367,0.001750054152185507,-0.0019021567339620724,-0.0008069370564203916,,,,
7.1000000000000005,0.0023305748704536893,-0.0012323428931328572,-26.935473274087386,-0.0007237442760899057,-0.0012956938736658305,-0.0002631077621090572,80885.05493074571,33.498621421580694,-99.33765959295985,1861.8166811843894
7.11,-0.0013259131496269304,-0.00023015241665267998,-26.91381030483093,0.0009184499872901449,4.901210158265231e-05,0.00091268597401753,,,,
7.12,-0.00685793684303187,-0.0031394256297788783,-26.907289695579355,0.00022944314698874628,0.0012760175380271692,0.001314286942775279,80844.91415007882,,,
7.13,0.004145231396892594,0.0010969176545811705,-26.88769038021885,-0.001328435969297961,-0.0007042987201358651,0.00027602186592931734,,,,
7.140000000000001,0.001284440214037339,-0.0011449195347886497,-26.87930977199854,-7.231314330562737e-05,-0.00026585505283195697,0.0010866967503395128,80804.45746730662,,,
7.15,-0.001602744065180679,-0.006867842909125446,-26.856755446822447,0.0008312659849589423,6.744594154710196e-05,-0.0005639864550646409,,,,
7.16,-0.0005977074955621543,0.0014600223223186866,-26.849694105752214,-0.00021442743155909632,-0.0006322279363738475,0.0005636352795286199,80763.55745910578,,,
7.17,0.0002643257942145959,0.00027563924613510036,-26.83059894021446,0.0014905578726068778,-0.00046460122046790135,-0.0006804208223726181,,,,
7.18,0.0006870310827118486,-0.001186620161323538,-26.82555833382243,-0.0012361602488607016,0.0007209233698953878,0.0011733861743170647,80721.84630374252,,,
7.19,0.005061211625453208,0.0003656403153391891,-26.808332292046813,0.00044231228470218754,0.0006280584517203685,0.0007793805052361196,,,,
7.2,0.001329425559172975,0.001261265735491808,-26.794425972614683,0.0015352628942316721,-0.0008033938186769095,0.0009818718986308883,80682.02510475092,33.498617931111674,-99.33761350616005,1885.6843154132457
7.21,0.0008630261226604066,0.0010288389060725024,-26.778251132213413,-0.0013280339345847463,0.0002278710496423528,0.0006865765187252313,,,,
7.22,0.0007243627908240785,-0.0017929202637237,-26.76246075265767,-0.001240804860911873,9.130061197463114e-05,-0.0008446547765051628,80641.30082823645,,,
7.23,-0.003933686254308993,0.0021140413642639494,-26.74342039589646,-0.00035737877162809334,-0.002620604691625344,-0.0006311518475679201,,,,
7.24,-0.0036540927406914854,-0.0034204671971718517,-26.726271352780234,-0.00034429937810379454,-0.00015480286031006199,0.0005660410768673495,80600.04113304496,,,
7.25,-0.0033854091810936473,0.0008055272730877257,-26.714240119299138,-2.539738422622618e-06,6.95654784006259e-05,0.0030334275217510018,,,,
7.26,0.005698702967132259,0.002889891896755659,-26.691792775455674,-0.0009571085559041493,0.0008868582694875983,-0.0015584830816273677,80562.85028468582,,,
7.2700000000000005,-0.00039909199622447245,0.000410746309585688,-26.68017341884728,-0.001739659191472523,-0.0020099659457619825,0.0004841664321513056,,,,
7.28,-0.001537111649082347,-0.0004791309865346992,-26.671309482498685,0.0010342473665248524,-0.0009708502595053076,-0.0003109741658502831,80521.43320445297,,,
7.29,-0.0020449728481555427,-0.0019106469023480658,-26.653722109500244,-0.0015491972249014844,-0.0003758142689927493,-9.376133298542626e-05,,,,
7.3,0.0017967914783158657,0.0002586150324286304,-26.639321471750275,-0.00023883251660467418,-0.0011629735878025045,0.00037608342808998803,80480.32800378135,33.49858718944071,-99.33756252788694,1898.3181653707234
7.3100000000000005,0.003720613642366452,-0.0015450518125111178,-26.629989291912164,-9.342286432377065e-05,-9.574027130538278e-05,0.0011008486533341212,,,,
7.32,0.0010222219625030066,0.004021176674245272,-26.606901950469275,0.0005999936846484895,-0.0001629109195660217,0.0006988830034585323,80442.60011396516,,,
7.33,0.000895296329964876,-0.0004625013481659119,-26.589272860568926,-0.0004190225463108418,0.0006408447813537516,-0.0002333969316548369,,,,
7.34,-0.003474390964205339,-0.0032998053776335783,-26.576395541595236,0.002860536411163912,-0.00021685256678427055,-0.0002775580694267534,80401.40329826034,,,
7.3500000000000005,-0.0006765188724543162,-0.004219286693330559,-26.560908333547694,9.162611202824263e-05,-0.0005079961741645193,-9.271893274627707e-05,,,,
7.36,-6.580515084596507e-05,-0.006121053572242497,-26.54721364205213,0.000802484880814793,0.002167863091280271,0.0013276149846206968,80361.39704601537,,,
7.37,-0.00232593881800266,0.0010865737968917,-26.532615491561963,0.0008667452469022101,0.0003352584679469272,0.00047929914737838703,,,,
7.38,-0.004607065081735819,0.002255116620412708,-26.523996334738904,-0.00025865143022096485,-0.000404734772395954,-9.469440899666768e-05,80322.65107959992,,,
7.390000000000001,-0.0013097918930088026,0.0022815691966834146,-26.50528158365468,-0.000422877801704969,0.00038573599474844817,0.000827084792927694,,,,
7.4,0.0007181117149962302,-0.003256088950598617,-26.49368938281477,-0.0012317694140142098,0.00030940948921471894,0.0003628549653823332,80282.93611407219,33.498622282005165,-99.33759503993319,1930.0812874561038
7.41,-0.0002992841617369184,-0.004540269007376637,-26.48120327295527,-0.00028558898778176776,0.0004096798801840189,0.00018101208723720803,,,,
7.42,-0.0008855916828643882,-0.00031695336398086224,-26.464158744745443,0.0005154503687896095,0.0015494058346517457,-0.000839235428902134,80242.71366686236,,,
7.43,0.001099583394913966,0.0011263289469463588,-26.454608203330707,0.0009588994001382075,0.001971064084695858,-0.0006966644389600671,,,,
7.44,0.0035408356976524753,0.0020933575422366216,-26.444245900309667,0.0012864999820991995,-0.00021467216298947254,0.000232700430716206,80202.88234450937,,,
7.45,-0.005374274140544147,0.0012224056896084066,-26.4244248430769,0.003197243557588843,-0.0008446078472593248,-5.799186591486505e-05,,,,
7.46,-0.007476050374973595,-0.0010344783338501807,-26.412725057615614,0.0012505461361601586,-3.7952234623518285e-05,0.00130252559621535,80164.78681676585,,,
7.47,-0.004255836239857789,-0.002720633492231203,-26.401777967924964,-7.180763640159551e-07,-0.000514865864717602,-0.00010928431339529724,,,,
7.48,-0.0026264760809832643,-0.0023110236642328447,-26.382948416481362,-0.0001687466417674214,0.0008147128612646787,-0.0001828127791722922,80126.14119761247,,,
7.49,0.0011883749462284787,-0.00199181130823134,-26.373054287471383,-0.00014546610757191144,0.0011293746261757445,0.0008465123867184861,,,,
7.5,0.0012761623348368624,0.004049091732770957,-26.35273402594861,-0.00047518673741658233,0.0006252547495749512,0.0019173627874828141,80086.16072980702,33.4986163844243,-99.33763831814412,1936.7786496230808
7.51,0.003970028112074404,0.0002680759796674648,-26.330795911944623,0.0006429910230270079,0.0010449500462487707,-0.0005807716499206555,,,,
7.5200000000000005,0.004190086441447074,-0.0015768844716984272,-26.325465231763033,0.0019822904015879767,0.0012324803096709334,0.00026665740036467024,80046.60506150956,,,
7.53,0.001256937149728403,0.006694231219810568,-26.30785240692283,-0.0005210928503803408,-0.0013430860631944846,-0.0004578052893078843,,,,
7.54,0.0052520258700617115,-0.00215511032858287,-26.29942171735251,-0.0013272090563335827,0.0011704379671061984,4.05361153864478e-06,80007.78424769384,,,
7.55,-0.0034103603482507077,0.001150342018262549,-26.290608510576334,-0.0005208157980562996,-0.0004908187551117233,-0.001165784138780372,,,,
7.5600000000000005,-0.0013629812438243653,0.0032222951154851943,-26.273632982861876,-0.00015928650718391183,0.0020073851204096423,0.0007225174492514791,79967.78841697381,,,
7.57,-8.904744352139229e-05,0.003874876602908774,-26.255044437334597,0.00018187661629615474,4.7130049447603446e-05,0.0004572366461944118,,,,
7.58,0.0001838845475064425,0.0021038156239077373,-26.236858742939376,0.0006435970246679209,0.002288691066324105,-0.0010863431683749165,79928.65849091952,,,
7.59,-0.0009659001389387846,-0.0019499818037447304,-26.221491070096413,0.001704901291408607,0.0001252714462815161,-0.0002195057302319004,,,,
7.6000000000000005,0.005946277624711138,-0.004932820840457887,-26.211978648133986,0.0004821552431903891,-0.0008519818083028327,0.0007588672587745497,79889.70666701568,33.49862226076353,-99.337651624225,1951.125439581777
7.61,-0.0033672083447063078,-0.0006095016223610082,-26.1934559684881,-6.32171082419783e-05,-0.0014360293220858616,-0.0005845437602062375,,,,
7.62,-0.0047497365479863,-0.00043454764844754905,-26.18194076914964,6.932032394381899e-05,-0.0002573954130105443,0.00027025803745577974,79852.49533410379,,,
7.63,-0.002876098081433868,0.0027321488447973824,-26.17573529819952,-0.001019135888607071,0.0001664553931095291,-0.0007666094360945183,,,,
7.640000000000001,5.294047487182722e-05,-0.0006589018024655471,-26.158205972004314,0.00011584228819795123,0.0017578470025727182,-0.0008017381608321331,79812.52975367871,,,
7.65,0.0006850663598724486,-0.0034894737424643833,-26.144289581526508,-0.0009447898007546947,0.0005187608328144324,-0.0010453722266550755,,,,
7.66,-0.000741135273499806,0.0014725634437224508,-26.131530307155913,0.0004285511133012886,-0.0010164255074456385,0.00023546962350261613,79776.09961854524,,,
7.67,0.0022927470258758556,0.00069727926037911,-26.122079176219675,-0.0008848256452783732,0.0007887122180394311,0.0011807470141923704,,,,
7.68,0.0001456858463363327,-0.0007401960033547683,-26.10957445256568,0.00011346826359920108,-0.001049072497409433,-0.0013687047751918479,79737.23984397388,,,
7.69,0.0019883506264110865,0.0024451319523287624,-26.096013119656188,-4.927140662906266e-05,0.0010364237303240496,9.360915133200944e-05,,,,
7.7,-0.0019228402136511568,0.0028890838840257096,-26.085244492597763,-0.0019506726216407893,-0.0006226161700856427,0.0012230242805480692,79697.6741308159,33.498594669699095,-99.33755759948201,1984.5816093126564
