time_s,accelerometer_x,accelerometer_y,accelerometer_z,gyroscope_x,gyroscope_y,gyroscope_z
0.0,-0.0022975555664974143,-0.004654937431401312,-9.7888153198248,-0.0005197482025067937,-3.930762920891033e-05,-0.0018817046551773276
0.0033333333333333335,-0.009284440381007794,-0.0013035438570937713,7.580430441949518,0.0030029085714281963,-0.0002677140235755131,0.00046213549047959907
0.006666666666666667,0.0016623114383106977,-0.0022444443076195964,12.07655608969664,0.002438626086396592,5.146339042107835e-05,-0.000848322049900352
0.01,0.009992289522791924,0.0052450323955986825,16.57790609528061,0.0006523361399913102,-0.0003328026962634922,-0.001208202534372927
0.013333333333333334,-0.00498662832267062,0.007262700957214516,21.086839205421196,0.0010328945368799178,-0.0009592406498654807,0.0006840906892530213
0.016666666666666666,-0.010899963060232758,0.005576631126383823,25.570504293506936,-0.0012036086581155162,0.0020682268353366617,-3.0250216558684823e-05
0.02,-0.0010257790111492292,-0.0031458283859908923,30.07345593692353,-0.0023743142704487257,-0.0013215039285113458,-0.0021126829041055186
0.023333333333333334,0.0016273358744678674,-0.00402520651629864,34.55491747535472,-0.0024914401733176755,-0.002570858333655793,-0.0027878760754960724
0.02666666666666667,-0.0028894539728841952,0.00619209913141112,39.063219744341204,0.001889916150211299,-0.0011731166705087346,0.0013345984473301352
0.03,0.004802195960558643,-0.01041738669651075,43.548763444754414,0.002250523772421218,0.0028475546646726468,-7.644796782133784e-05
0.03333333333333333,-0.0015675717780030281,-0.00011514354034569315,48.05461786713692,0.0008540862833269211,-0.0009537393865406555,0.0015088209530426887
0.03666666666666667,0.0008302152144599752,0.0009927570277114778,52.558573060602974,0.0011903677373886067,0.0014821623877879046,0.00209380395324582
0.04,0.010970164175022983,0.010440662322093534,57.05707151002281,0.0013501160464749942,-0.0009932639750645659,-0.0016669135172100865
0.043333333333333335,0.010938304477730648,-0.00659209373456265,60.90456538775734,-0.0037470688240945423,-0.0015334209413204868,0.0010317980994813659
0.04666666666666667,0.0011015260267174273,0.00751937147078866,64.73094048656067,0.0013133995366059266,-0.00017282588951969685,-0.00233667316187602
0.05,0.003476431341590364,0.008887606657057583,68.57722459426604,-0.000641428975780982,-0.000739515813785346,-0.00134576175819836
0.05333333333333334,0.006677165347644822,0.001810602092029402,72.40782522810986,0.002809778820177595,-0.0011625622472025425,0.003159426017519007
0.05666666666666667,-0.009035984683034015,-0.007715177952907777,76.2528927106503,-3.5205551051575667e-05,0.0009505072792758095,-0.003539601190477109
0.06,-0.009291373633067637,0.004098692514997674,80.0857722702628,0.0011909855976097925,-0.0012383394479690334,0.0014257441644874673
0.06333333333333334,-0.0038606809788626546,0.008588141497111236,81.2720524568617,-0.005043391561475088,-2.6421185557939534e-05,0.0012724733643018425
0.06666666666666667,-0.001276344382282036,0.0018563017944257477,82.38474375169166,0.0015648006097765937,0.0020876547336571485,0.002001006775216174
0.07,0.0003386535221367175,0.00846266667571453,83.50490951320563,-0.0014797750142141654,-0.000749060442856712,-0.000404648030999746
0.07333333333333333,-0.0006492528725564239,0.0037719263966564495,84.62094437016522,-0.00013922775019031735,0.0004133577899476653,0.0015893365419151924
0.07666666666666667,-0.004008306556328996,0.007054632098822202,85.73141224678223,-0.0005195832999657297,-0.0013349563128200867,0.002459253306644751
0.08,0.002139330390223112,0.00018442465088243682,86.8492606574834,-0.0012272638470152205,0.0009049867958970754,-0.001720734916470731
0.08333333333333334,-0.010486298505167316,-0.0021735134115330877,86.6981575761166,0.00020352208232546793,-0.0006867579580073881,2.3693844651542307e-06
0.08666666666666667,0.006515037216756549,0.005633060831391838,86.48508074398136,0.0006604457726239664,-0.0012102117485102214,-0.0006225998399378502
0.09,-0.002218938568899757,-0.001600389380057722,86.27943732683588,0.00016615257121395198,0.0012910658708883728,-0.0003440912824978297
0.09333333333333334,0.0011174545486459474,-0.0019584837428289078,86.08904323581183,0.003140246183057715,0.0017012771110361915,0.0020649588270675936
0.09666666666666668,-0.0026801820756720543,-0.004539325636503893,85.88280983437399,0.0010732386028147725,0.0031239899995295695,-0.0006034301260558595
0.1,0.0005910869932149778,0.00038268130673092495,85.68774401082354,0.0010564944376552014,0.003053062995090429,0.0016620226521945204
0.10333333333333335,0.006975897979987556,-0.0018368662638957672,85.50744340202039,0.0003955891841729492,-0.0015304109931936778,0.0016725982887319496
0.10666666666666667,-0.00044711318751052947,0.002436975982952228,85.34925816051982,0.0013274042696584652,0.002620631070737609,-0.0010235938707358464
0.11,-0.0026295828225835977,-0.003922839216677729,85.17844657316253,-0.00036003836264469685,0.00015823801268245141,-0.001244155414415414
0.11333333333333334,-0.005678129109953415,-0.011297353100723493,85.02159443921492,-0.001685431944991314,-0.0027950750269140857,-0.0005051721643709329
0.11666666666666667,0.0016174303233500525,-0.000917658127171275,84.8474615159135,0.0033563088604476,0.0003093782228632261,-0.0013043876204571342
0.12,-0.007108661003799206,0.0025029376701937033,84.68360011722518,0.0018661501113071501,0.0024390836138240405,-0.0003898998263021264
0.12333333333333334,-0.00369193536344681,-0.0006030259333856868,84.5895420762447,-0.0009870424343853704,-0.0008060525017576946,-0.0006603040742106701
0.12666666666666668,-0.0009491288096167476,0.0055959917132547485,84.49799847584285,-0.0011869919451012107,0.001167541668729887,-0.001677282817852264
0.13,-0.0009919960027463806,0.006808808317517856,84.40260005340531,0.0015392207605484987,0.0023193597566199633,0.0010624666367897034
0.13333333333333333,0.002384721006053159,-0.010428466839773146,84.31260728243728,-0.0008247702602054081,-0.00034311866327505554,0.00043223550798613395
0.1366666666666667,0.0008918385547479371,0.0037835132412963168,84.22830238194408,-0.0008856257875798792,-0.0019873136901735946,-0.002909928748926792
0.14,-0.003723815453467826,0.00801463800136247,84.12610609241976,0.0004067636621029234,-0.0007459888972124579,0.001974608936204899
0.14333333333333334,-0.0028833905789394723,-0.0028149444626033478,84.12761449007476,-0.00032145277698794833,-0.0016365094925313232,0.0019622889072033875
0.14666666666666667,0.010806940608900084,0.003965501402716338,84.13266273645286,-0.0025535208829244264,0.003528524089123086,0.0005250988158618969
0.15,0.013716718251562704,0.0026206396895047455,84.12449684489883,0.0010464451359666965,0.0007737260310240611,0.0010089193894344836
0.15333333333333335,-0.0005477723496500087,-0.006374803764096756,84.13781191506875,-0.00041545051432357146,0.00047990489955380267,-6.0017508759057227e-05
0.15666666666666668,-0.0007251596899621725,-0.00311786697362589,84.12760101154112,-0.0009148606051016115,0.00038804879653964,0.0029577236454739657
0.16,0.00705018211673912,0.006561882514997964,84.13537047187386,-0.001002222878027146,-0.00010770909469544933,-0.0014978239863477419
0.16333333333333333,0.0033335144943700185,-0.002429666893083073,84.16465274318927,-0.0006863249042128477,-0.0009226085548000203,-0.003009948773217326
0.16666666666666669,-0.003280936172432461,0.0014722510939284123,84.21357872022979,-0.0032282595334718243,-0.0002858875252500752,-0.0005773938499008783
0.17,-0.011374464418496728,0.0001528886161007993,84.26015316232078,-0.0005131525791049875,0.0006750881268295577,-0.0009320872507699038
0.17333333333333334,0.00025462102214394826,-0.0019538672560745498,84.30085866287943,-0.0008106583411482,0.0012285258538101756,0.0005932683398068989
0.17666666666666667,0.004723002885286267,0.003404919735159579,84.33985433034138,-0.0003110093663259356,0.001163726548823336,0.004470537526978038
0.18,-0.003953185232369404,0.002925062688344911,84.38839956293566,0.0016882484018205452,0.0024934248403432314,-0.00095450899361347
0.18333333333333335,1.387291759304878e-05,0.004275960164679467,84.37783642524238,-0.0036383508200758512,0.0019191263450510198,0.0017626826287959808
0.18666666666666668,0.0016609378271230147,-0.002606644614668228,84.3775961969384,0.0010365395007980492,0.00037220042242306256,-0.0023932712493351634
0.19,-0.001382091579163837,0.0017033005534916321,84.36314560721432,-0.0021605237757108173,0.0008216382341542273,-0.0024126458684257915
0.19333333333333336,0.012731487690183176,-0.010732454884728295,84.36537070428422,-0.00014732903825370855,0.0011055532159220682,-0.0005182418314165163
0.19666666666666668,0.0005458217452760444,-0.006117288152602092,84.36210016600597,0.0025722714902633387,0.0007503044823850281,-0.0013733453150329207
0.2,-0.0037650924523976647,0.005103553052193692,84.33834072483315,-0.000982453964433998,0.00036770085922410944,0.0040921620672001325
0.20333333333333334,0.004558730601170043,0.0050087584117321105,84.34874662340604,0.001472708694300808,0.0015298669685978859,0.0011251577902668458
0.2066666666666667,-0.007350055684010863,-0.007082835938090879,84.37426290305872,-0.0006790241506488728,-0.0004247213595225264,0.0002697404162145643
0.21,-0.004435455440016156,0.012248709978468015,84.38943893742766,-0.0022810272096823107,-0.0005291883013313647,0.00287910560219241
0.21333333333333335,-0.0054154227828020025,-0.003153944797660558,84.39758875306678,0.00016604096566346342,-0.0036744966683383636,-0.00035013635418951915
0.21666666666666667,-0.00024693722441991936,0.0028316906277142005,84.39983231422757,0.0003458137061302514,0.0017800924601984343,0.0003417980328645376
0.22,-0.0012603372658595356,0.009363795517882042,84.40511601138253,-0.0004285734183335323,9.116836349588787e-05,7.841799785355521e-05
0.22333333333333336,-0.0030601150176770234,0.0004763396843953592,84.42731084395096,-0.0015220800555591847,-0.002783590211326717,-0.0016863532909207292
0.22666666666666668,-0.00034733266397261756,-0.0018880220741515235,84.44437002583533,-0.0013324215808903873,0.0004187377934149101,8.217850347904166e-05
0.23,0.005584651380026185,-0.002966896956112686,84.45225697980906,0.0008902690412724671,0.0012424612211016138,-0.002133000536062087
0.23333333333333334,0.001239664308156086,-0.004766576635776456,84.4736504722853,0.0033094125028915286,-0.0010359057140585776,-0.0016380622333599505
0.2366666666666667,-0.0048010819835943505,-0.0070056610637651414,84.48201570439629,0.0015923051037576787,-0.0006454912499041754,0.002982640474062109
0.24,-0.0024127054848855113,0.0006215241170266241,84.4999235016591,0.0006965886780383244,-0.0013392024020439668,-0.0017370860762656365
0.24333333333333335,0.0005418572752237782,0.004524204159765353,84.51966096388452,-0.0007161853268370151,0.0018661357487818285,-0.0006675567442686416
0.24666666666666667,-0.006007790111581583,-0.006018752703590509,84.53443028086943,0.0016761233052536811,0.00030207344447409466,0.0011338030425940785
0.25,-0.0010710685009040195,0.00504707928373682,84.55142794236318,0.0013583966010819852,0.0016197420273608087,0.0011736907976198237
0.25333333333333335,-0.0009455671723186657,0.003837134535418412,84.55984350453296,-0.0017353475332030025,-0.0012783043172045429,-0.002909687873331086
0.2566666666666667,-0.003718850493940159,0.0006394063364243773,84.57591612419502,0.0015058918904445504,0.00020993338874340607,0.0012244581689378631
0.26,0.006263667102598367,-0.0024705613830870677,84.57827281142013,0.004580249206490061,-0.0006584548377977144,-0.0008787125672154822
0.26333333333333336,-0.001824093264880774,-0.007872495939513939,84.63410326343264,0.0012866186300246702,-0.0018678855833288534,-0.0008263250307035479
0.26666666666666666,-0.0033968175675745246,0.0014904802789980764,84.67217884092916,0.0025172545742650106,0.0005646050469613278,0.0005495193912501772
0.27,0.0006311875089021734,-0.006302811950225114,84.73170974574231,0.0003951782933286347,0.0025389882997992478,0.0023806035375835448
0.2733333333333334,0.003142539760113624,-0.0067401642397050395,84.77352139690475,-0.0010264685793875896,0.0004248954243165011,-0.0017685320496633285
0.27666666666666667,0.0002489125207366975,-0.0017571116489225624,84.83012685037396,0.0012142830400521322,-0.0022341586409151174,-0.0024363797038973174
0.28,-0.002069488997854437,0.0009413594826219704,84.86894372060294,0.003844052121608841,2.273650464637405e-05,-0.0005198805903086571
0.2833333333333333,0.000737059821581548,-0.0017035687722740916,84.93340169697454,0.0021302882294980865,-0.0007933851909907138,0.0019695317646580414
0.2866666666666667,-0.004096915713610073,0.001318033947074915,84.96871150010259,-0.0025326611883848566,8.967069708730547e-05,-0.00045243908825129083
0.29,-0.008902557405300524,-0.004385784285030568,85.01469803198499,0.0010679451713150828,-0.0005306517123913991,-0.0019410629596846281
0.29333333333333333,0.000566932748906599,0.0027769012290221116,85.07816877175813,-0.0010206619117008279,-0.0015507532231031885,-0.0013193364482957054
0.2966666666666667,-0.011020856027870242,0.0035510708679053794,85.12624592928624,0.0007968135884432383,-0.0010011540731967214,0.002486909917318016
0.3,0.0072894711567109615,0.00906572791977025,85.17767619100324,0.0008023745788311725,0.0013043615245672885,-0.003757754546642891
0.30333333333333334,-0.002110263576123427,-0.0038974672947730683,85.22433120385375,0.003592812987056257,-0.0011056702688958407,-0.0013863564914439056
0.3066666666666667,0.0003236651595014002,-0.0012835002180403342,85.28357178776024,0.0018191202501540089,-0.001725627892288927,-0.004700572489393322
0.31,-0.0016509622226358674,-0.0005146958119561855,85.3224736354536,-0.0005896886454153005,0.002231338453416809,0.0001797897659405172
0.31333333333333335,0.0012837606975391793,0.004125853161668417,85.37577712774448,-0.0011632612863264938,0.0002035439265266233,-0.002567687920143327
0.3166666666666667,0.007893948447460443,0.0033712019577781752,85.42139709965795,0.001775876234726056,-0.0020066925766268713,0.0009026164097706317
0.32,0.0034849781284408883,0.003061147080847549,85.47268707891791,0.00045173989315246414,-0.0012139937768216394,0.0010088210204481326
0.32333333333333336,0.0018308414729285103,-0.0020131415544656257,85.52152678343477,-0.00019348167593288747,0.0023913624424217357,-0.0008129515955099402
0.32666666666666666,0.005220203437586683,0.00028276906088659567,85.56893763527283,-0.0010974226577113771,0.0014574644868611685,-0.0008178748276540697
0.33,0.2514095211318649,0.16151949398176668,85.61590015499695,0.002552612339014838,-0.00022790479953568431,0.00014940518137679176
0.33333333333333337,0.2588257204830841,0.15019635184244412,85.65496729629622,0.0006361755402202456,-0.004370933452834799,-0.0019288303271509711
0.33666666666666667,0.2619645817695667,0.1540015005621003,85.69915155252998,0.0015496528638628544,-0.004362416094746166,0.0014032531064951364
0.34,0.2675966466099783,0.1601106623549774,85.75242921371705,0.002140886680533074,-0.00493143984630323,0.00306592670813507
0.3433333333333334,0.25931445578656753,0.16119161690617329,85.7939788639735,-0.00037602561940973346,-0.007774760716167816,0.0022027154543577034
0.3466666666666667,0.264471121119391,0.16011568024174133,85.82179134587636,-4.140826461742123e-05,-0.009347728861032788,-0.0011303436396863306
0.35000000000000003,0.26425473614139333,0.15731199081215091,85.86815636547563,0.0012609226181954083,-0.008727501609442368,0.00044334087736423787
0.35333333333333333,0.26947783835460976,0.16486708309568648,85.90866610267628,0.0025895550510506983,-0.014682579006650036,0.0018122220690080062
0.3566666666666667,0.2671595592405211,0.16113193133674597,85.94362023390967,-0.00031063033261052343,-0.010304997558313446,-0.002247514359957576
0.36,0.27559621073280627,0.1628948242744727,85.97148706464512,0.002425561576625904,-0.011404423045257777,-0.0023190943588019086
0.36333333333333334,0.27091862461594457,0.16689352873200328,86.01238336927733,0.0011231456543134063,-0.014366182618173478,0.001946824298942922
0.3666666666666667,0.2731016918731426,0.16492462309837186,86.04889988293661,0.002924480298459442,-0.018192313056926427,0.0004146026182268877
0.37,0.2838861744628491,0.16127099762487795,86.09461525736592,0.005469619787535424,-0.019794611290773725,-0.0016100322901419707
0.37333333333333335,0.2798803204831297,0.1667450540445047,86.13145524911543,0.00208148862990229,-0.01650091237689285,-0.002120546623989535
0.3766666666666667,0.2796148350299848,0.17524092838712513,86.17200837510562,0.0032171702471533448,-0.021863090296072262,-0.002053022953133657
0.38,0.28120220272302743,0.1634101509134097,86.223508255596,0.002901967583171899,-0.02639529834566243,-0.0018922206019698414
0.38333333333333336,0.2813746537282515,0.16611750071248998,86.25284940530325,0.004251614392625498,-0.023983377365291107,-0.004230767674859
0.3866666666666667,0.2885685883900832,0.16855118551655657,86.31661488471018,0.008891075875312118,-0.027494641967941755,-0.0006376996670456542
0.39,0.28637773606170513,0.1716381097248131,86.3696530587408,0.0026429904230332204,-0.03056891750035333,-0.0015707648879130292
0.39333333333333337,0.28495105985569585,0.16952264196406683,86.40501691908784,0.004805694449644407,-0.03265888928426419,0.0007611616581575286
0.39666666666666667,0.27752345919222177,0.17336929310013527,86.4578258847382,0.007249818543400953,-0.03268764815484947,-0.0007608644213998928
0.4,0.29649799657730597,0.1716125119549359,86.50355290028013,0.005882994006555279,-0.032558807834276844,0.0005771350909132394
0.4033333333333334,0.2766227411034556,0.16883002531810823,86.61827702079005,0.005516177908673837,-0.034520281244520244,-0.004267219360297083
0.4066666666666667,0.2815807599120236,0.1706071997661492,86.73280131177579,0.010215984669877312,-0.03613597498985252,0.0008357554367423413
0.41000000000000003,0.2714407775901025,0.17327347801988982,86.84502981801128,0.009811535552333031,-0.03656280496209995,-0.005601402695487946
0.4133333333333334,0.2720802271273573,0.17530554102809293,86.95898382487475,0.009028752701623349,-0.04051241294537037,0.0022622515583493328
0.4166666666666667,0.2782854404517228,0.17275086675672505,87.08138730569664,0.006486745745516617,-0.03548988559371505,0.000661817404650311
0.42,0.27922832727858043,0.16571900201468767,87.19631012127084,0.008979456607404403,-0.0440133623432588,0.0008705712277171731
0.42333333333333334,0.27177901491480344,0.16860557936661122,87.2490220236435,0.005799562918355023,-0.046380611839506695,0.0018058363209544888
0.4266666666666667,0.2749380214474258,0.16907139140711655,87.29909446062284,0.00782369196492264,-0.04595575713731922,-0.0006861754855276786
0.43,0.2700006373017746,0.16530317139893136,87.32726310302104,0.008938786405187372,-0.0483053288559447,0.003155150648773172
0.43333333333333335,0.2706924558179712,0.16476193681827161,87.36721598994323,0.010446214854014067,-0.049783016013285664,1.616692510479691e-05
0.4366666666666667,0.2723264606668022,0.162996809572944,87.41268195483232,0.008598820941789835,-0.05138382481087465,0.002114773463956232
0.44,0.26178816759983947,0.1743823348845409,87.4484285380016,0.010192725030318178,-0.05221596743930296,-0.002123843225252814
0.44333333333333336,0.27120168906245357,0.17049756291977516,87.50026082911405,0.010419461692542716,-0.051859520843897944,-0.00039253157427028817
0.4466666666666667,0.2637120781118071,0.1710413297141473,87.56085152397316,0.011612536755507654,-0.053918034485156995,-0.0009660678466658571
0.45,0.256443748533872,0.16508293182895656,87.61348391138883,0.010996559755830379,-0.05408134689145342,0.0011941981230792775
0.45333333333333337,0.26240301266095695,0.1713152721547595,87.66992248240277,0.012718226589277385,-0.0573612227105562,-0.0015716998572413883
0.4566666666666667,0.25453498240390887,0.1683178413139832,87.72240590597542,0.0116347148871628,-0.06053667840003367,0.0010640968611483974
0.46,0.2502740772235927,0.1656291343142654,87.78150769271626,0.009756586015826423,-0.062153592615028536,-0.00029578218374902746
0.4633333333333334,0.2421019165373066,0.16937846552712865,87.81519101355195,0.013320679020577599,-0.06434469961680159,-0.00016088870810754074
0.4666666666666667,0.24931347737923396,0.16935932084111707,87.85762966854159,0.013306746351580648,-0.06369991607927995,0.00020468009037102875
0.47000000000000003,0.24084112846902905,0.16881104131462268,87.89637514394784,0.012821833605190671,-0.06598343298928164,0.0011299721612129901
0.4733333333333334,0.22923704538914816,0.16274846649377864,87.92805292744343,0.011577531328007724,-0.06732511544702975,0.0031332443706448628
0.4766666666666667,0.2267786767882301,0.16114250104637107,87.96526630148897,0.015634028056927714,-0.0711174428748058,-0.001356032410212998
0.48,0.22051505770362642,0.15345534125918506,87.99654058975013,0.014003632228030102,-0.07439473763643044,-0.0005865079161419032
0.48333333333333334,0.21242700165917797,0.15276132148188407,87.98784674112699,0.015513767722655683,-0.07199307422816444,-0.0011342010681656446
0.4866666666666667,0.2134894383860642,0.16295322969674478,87.96305157572655,0.013983701195558687,-0.07435675394857473,-0.0013569875339790969
0.49,0.21174676153608604,0.16328553837335888,87.93442802939519,0.013510967227293936,-0.07768465059914174,-0.002043666239693179
0.49333333333333335,0.2068482429641858,0.15083484450546275,87.91066563094658,0.015676207457369792,-0.0787317579904256,-0.003309847107001253
0.4966666666666667,0.19311545818716158,0.16056610401533927,87.88935414696535,0.016611341138292053,-0.08209608061747314,-0.00033659616273245245
0.5,0.18692749852708962,0.15117192041379882,87.86008139536547,0.014501685123567804,-0.08237055858884525,-0.001666825094196777
0.5033333333333334,0.17848692334444397,0.14954611824799874,87.91007970478107,0.01576547243164327,-0.08588404304467759,-0.00014768945218408312
0.5066666666666667,0.17705480692321107,0.13657653074167336,88.00409137839299,0.018733088831644183,-0.08302953130414374,0.0011955809497524899
0.51,0.17328465396645026,0.13530779892184364,88.07311914330522,0.016375950715345818,-0.08620437845475257,-0.0002748832231211417
0.5133333333333334,0.1505766824832803,0.14474781971056971,88.15082452166668,0.01702899685514034,-0.08628411073414063,-0.0018893629479958332
0.5166666666666667,0.16216614479495595,0.13635086278302383,88.22482886215127,0.017482237483650836,-0.08881483290858878,0.0003214431007746636
0.52,0.14582497426247293,0.12992908681544868,88.3090257638861,0.01798783878517983,-0.090240036132734,-0.0013581353489465027
0.5233333333333333,0.1335233943544612,0.14010663511641663,88.37297699804101,0.02157335487519509,-0.0921428392267565,0.0021431333876028194
0.5266666666666667,0.13048679563451057,0.14022357884177417,88.4402367419465,0.01585518531335145,-0.09022445132650815,0.0009427003713749025
0.53,0.1172450741391167,0.13910196339145026,88.51923724603297,0.02012350844253209,-0.09613743539805573,-0.0009810371395411945
0.5333333333333333,0.1227309601732159,0.11282253995250804,88.57203188746217,0.020529573768110102,-0.09626976297810917,-0.0023735417122465285
0.5366666666666667,0.10178121131680652,0.13031957238825334,88.64158569918715,0.021161142260729446,-0.09721619780265653,-0.0007210307619147274
0.54,0.09716175217745947,0.11970714794836117,88.7258166242583,0.01804227129911644,-0.09886201722740875,-0.001294003131713152
0.5433333333333333,0.09084122596507069,0.11137769535883964,88.79369718241388,0.02505667716255,-0.09891333367346071,0.0030683781827098135
0.5466666666666667,0.07059546895475621,0.10410498616796546,88.87294439559756,0.020992374114815165,-0.10071916138169579,0.00034595837815284335
0.55,0.06816946635131196,0.1100293909765653,88.95838639304498,0.02248868831513659,-0.10366884661839786,-0.00037638316068134837
0.5533333333333333,0.053329581590125644,0.10561104078266577,89.03483419288204,0.022864575995885508,-0.10198103986712809,-0.0010898345894779832
0.5566666666666668,0.04036729416119525,0.10587955636565095,89.12075068613325,0.021898156408188475,-0.1030803719561112,-0.00021579565812322802
0.56,0.04158034789793037,0.09149881710579834,89.2063789434936,0.019267835138545974,-0.11035506400921406,0.004699810489767156
0.5633333333333334,0.02263863477640979,0.09589664816766738,89.26901516781611,0.020861420865723117,-0.10658540015418061,-0.0009474061114458583
0.5666666666666667,0.017220719132528546,0.09695459023336134,89.33868921364032,0.020358647867763147,-0.10956709066274188,-0.002883087249476776
0.5700000000000001,0.009040426074009471,0.09189901019014848,89.40798400071202,0.024751229100069584,-0.11126762279324286,0.00044214263532611097
0.5733333333333334,-0.010482763010707233,0.08086843555202324,89.47747463370085,0.02099064050606031,-0.11163244300833516,0.00045888034667784864
0.5766666666666667,-0.018804028184065912,0.08049926441733404,89.53939537123544,0.02175151602157605,-0.11256961120404452,-0.00023541638288076836
0.58,-0.017111020548203917,0.07339672105955637,89.60363368168262,0.02112532016015147,-0.1121662937692908,-0.0013595844072163323
0.5833333333333334,-0.04648271238306618,0.06830421172308851,89.66441213936544,0.026346623761459978,-0.11600858919156042,-0.0030477830535637056
0.5866666666666667,-0.05492565116609106,0.05555393054128469,89.7135496236132,0.024650425596343038,-0.11581494974766769,0.0013544296613179057
0.59,-0.06563400727476032,0.05659039432246511,89.7667777888152,0.022692132244236572,-0.12003521047346563,-0.0008263886929253908
0.5933333333333334,-0.08340546105502078,0.06306245995416457,89.83053381786226,0.023199093200582745,-0.11613329617373838,-0.0003393638850954752
0.5966666666666667,-0.09539110772492426,0.05203105104822651,89.87813137805547,0.023138379098795073,-0.12173587457807358,0.004317316938260833
0.6,-0.10723610071459588,0.02609468099923706,89.94080468198966,0.024198207891227876,-0.11913726595183244,-0.0009026312663731578
0.6033333333333334,-0.1187278041176471,0.043533743721326186,89.99136673368882,0.02283343291139562,-0.1243008049034421,0.0030580067090678997
0.6066666666666667,-0.1347000218498569,0.028070746365193685,90.03356696740369,0.022291274990654954,-0.11943646850681566,0.00016789920352494394
0.61,-0.14914345593742034,0.030895856607824054,90.07506995427435,0.022136351077432705,-0.12170901417619823,-0.0005139111164769979
0.6133333333333334,-0.16238944775128084,0.010931198975581707,90.12502491990169,0.026039411804102356,-0.12577705206006154,-0.003500485016153771
0.6166666666666667,-0.17802700529865004,0.02009002182257475,90.17717963896636,0.02644809597156008,-0.1255682080401637,-0.0001584536313075929
0.62,-0.189261758259046,0.0043339231922158855,90.22761451392331,0.02711877910720077,-0.1238830163844799,-0.0013616860930324676
0.6233333333333334,-0.19971414865155646,0.009770708588240383,90.26882180938868,0.023530659451301464,-0.12575151403142598,-0.0006588693991795548
0.6266666666666667,-0.2186348803552886,-0.004610082735901826,90.33816966274793,0.02520345298702077,-0.1254247539092949,-0.0001532402020677181
0.63,-0.23980590008503438,-0.005730893007706621,90.41012248966673,0.02411183694270145,-0.12776665702168197,-0.0009609849919884302
0.6333333333333334,-0.24919300118326826,-0.01954093271602578,90.47513350292927,0.0247774351867635,-0.12541832744799467,0.0015945500360918822
0.6366666666666667,-0.26504010057556776,-0.02409899289058623,90.52742447968478,0.02489232978085907,-0.12821885153774346,0.0018092384458713775
0.64,-0.27838233640431964,-0.018064446972307833,90.5951486307253,0.02814455222409241,-0.12898424057519692,-0.0022602483801329874
0.6433333333333334,-0.29889902836920595,-0.03424640198490299,90.67520556248273,0.024295949966982887,-0.1301511277997812,0.0011060293415884848
0.6466666666666667,-0.3181413869995941,-0.04303328375196107,90.75748656258249,0.02941927776921064,-0.1281152832924728,-0.0010655141531037277
0.65,-0.33460396796429986,-0.040515063143713455,90.8468175753007,0.022759629224665883,-0.1295577373841601,-0.002661169224242798
0.6533333333333333,-0.3532183085405534,-0.053496668885325685,90.9452953369182,0.026900991359801136,-0.13267348427346273,-0.001318453849535996
0.6566666666666667,-0.3600722945397636,-0.06861133665206398,91.02123488581346,0.027962348369027994,-0.1315284372876198,0.002513082428114324
0.66,-0.38138751466053455,-0.06638937927881733,91.1003439122086,0.02425502300386468,-0.1315459486268195,0.00102639368286842
0.6633333333333333,-0.3895298990804963,-0.08070357853884515,91.20165696593548,0.025649248787780052,-0.1311272894537856,0.00019724922971865247
0.6666666666666667,-0.42053488992339405,-0.07628313093223614,91.30145346282252,0.02230376946609866,-0.12923633390389258,0.0006552216557517126
0.67,-0.4333661587492361,-0.0902749026259443,91.40054614570325,0.02511313698082249,-0.13138833833789132,-0.0002958013906560583
0.6733333333333333,-0.4569742267066317,-0.08598123162340114,91.49649934178304,0.023893688670747558,-0.1337922286291911,-0.0002299398953261917
0.6766666666666667,-0.4750329344003163,-0.10852717102737364,91.58932898541906,0.026538941806660003,-0.13058525653469044,0.0003294447616268628
0.68,-0.49159118509093713,-0.1047609007479442,91.68799473314604,0.02471295078319826,-0.12994362673483711,-0.0024067593748103543
0.6833333333333333,-0.5123622857653238,-0.12651376389160243,91.80029109454351,0.024882742594072332,-0.13191406500987626,-3.3786380372318236e-05
0.6866666666666668,-0.5224349608164354,-0.1296396745494136,91.90665005780816,0.028845100770364618,-0.12848675347105673,-0.0006003411118866143
0.6900000000000001,-0.5549447875478853,-0.13728304297157884,92.02380480372798,0.02695423362938361,-0.13488006843037587,0.0005801595197470753
0.6933333333333334,-0.5645111476200619,-0.14053305337610095,92.123963411709,0.024591415180493573,-0.1310636445251306,-0.002147969558807495
0.6966666666666667,-0.5850336695351721,-0.13278276187073984,92.24453248639364,0.02387232320678044,-0.12922218402944582,1.699705227508787e-05
0.7000000000000001,-0.6025858989047352,-0.15427335972247097,92.36345879299682,0.025574282867595294,-0.1320577320500815,0.002125926679421827
0.7033333333333334,-0.6151266234786963,-0.15975522343609005,92.48783051548638,0.02475710173327946,-0.13009408079234736,0.0028988861127121003
0.7066666666666667,-0.6444998584575885,-0.16775936039497896,92.60230691331948,0.024729141208886626,-0.12832017029197518,0.0016050510367326284
0.71,-0.6595982586467739,-0.18664157486546532,92.71593304727504,0.023022464715679005,-0.13153508954807175,-0.0032072933063496444
0.7133333333333334,-0.6693932874568486,-0.19140337809834823,92.84872707891493,0.02388657043734417,-0.1262056735802716,-0.003144084564910088
0.7166666666666667,-0.6960205567917472,-0.19691589525017245,92.98087527080708,0.024141256163108474,-0.12564402696683694,0.002991470111063605
0.72,-0.7039075604549575,-0.19918828715593817,93.09503731597134,0.027235807380836446,-0.1255767360331059,0.00038531376882898895
0.7233333333333334,-0.7230876476352491,-0.2184308230424149,93.21738525275892,0.023019296103703922,-0.12337101801365609,-0.003762898739237976
0.7266666666666667,-0.7442648161136416,-0.22166132701600888,93.35894637311398,0.02340518259049638,-0.12435129658036809,-0.0014731494161691276
0.73,-0.7758518249438503,-0.23417393880104811,93.48730212162828,0.019216711666685832,-0.12471064348380627,-0.0001415349825559522
0.7333333333333334,-0.7828362304482396,-0.24075976835176424,93.62356385265048,0.02238541782570067,-0.12155590358885562,0.0012889726136024603
0.7366666666666667,-0.8025482462253924,-0.2408108204451687,93.75397300800107,0.02352044648681184,-0.12049722167990873,0.0030832666135128255
0.74,-0.8190681295433799,-0.2515619084215356,93.88989818910795,0.020397723758495915,-0.1213105085411094,0.0018366246039818097
0.7433333333333334,-0.8407385333968955,-0.2582027730919137,94.02176460642217,0.021715657850226815,-0.11947433983140655,0.0013951738998682559
0.7466666666666667,-0.8665591448282716,-0.26783502783473917,94.18310167997734,0.023983864525592133,-0.11757633765562173,0.001460374613479014
0.75,-0.8747383350615223,-0.27856413448427586,94.29876245099777,0.02095628468341382,-0.1183718314843116,0.0024107924051276655
0.7533333333333334,-0.9013809604249402,-0.2844709258919398,94.45654296920172,0.022619001518121594,-0.1153193770144243,-0.00041757844067884096
0.7566666666666667,-0.9084800607466655,-0.28409138125826683,94.58618175577664,0.02200975746457178,-0.11118159526092125,0.0015908490846229357
0.76,-0.9185732696651291,-0.2831409769627845,94.72520301670882,0.020555082938608627,-0.11135598179583199,0.004434357483082215
0.7633333333333334,-0.9481479005039974,-0.3025094096090746,94.85938013529902,0.020246307335114042,-0.10985680512094279,-0.000132151712582953
0.7666666666666667,-0.9703885739893414,-0.30584422257823685,94.99164634397195,0.01957841080765034,-0.10961553010587684,-0.002135423164652192
0.77,-0.9816563006688516,-0.31439996974853485,95.12694269203233,0.019279511984483876,-0.1088378831882495,0.0003666063740491847
0.7733333333333334,-0.9973730110301291,-0.335143609897244,95.27653459370418,0.017932790254693326,-0.10949895644171287,0.002067456077734819
0.7766666666666667,-1.022410761471785,-0.32968078783914434,95.42301894414699,0.020419976927303476,-0.10474467756056338,-0.0021612800787059053
0.78,-1.0398933748108368,-0.3347172541117982,95.55956413628721,0.021057005635831932,-0.10380109093189845,0.0008114285563563747
0.7833333333333334,-1.0486104091166342,-0.3463849456924397,95.68549495478776,0.0177597755310756,-0.10126001546596478,0.0017200240444114278
0.7866666666666667,-1.067436130814702,-0.35867615276022446,95.82612253314572,0.01561637197635041,-0.09911817781132001,0.0010053943067311237
0.79,-1.092639037222242,-0.35957498681258376,95.95032218230143,0.017135621456785884,-0.09622502076554623,-0.0005602704490224212
0.7933333333333333,-1.1148083767619148,-0.3659192912402495,96.08351671475036,0.01687484444754294,-0.09433327087850142,0.002122298674058452
0.7966666666666667,-1.1239114052464672,-0.3729126057854879,96.21715020693175,0.01806013930723977,-0.09050157322932603,-0.000611247433227694
0.8,-1.1365542572898613,-0.38167935326454955,96.3448327016645,0.017835078453106078,-0.09212566269701611,-4.023472954894801e-05
0.8033333333333333,-1.156672038829247,-0.38117576424403504,96.46943973094882,0.01585471076850131,-0.08895383468294281,0.00017664944780956612
0.8066666666666668,-1.172797083609615,-0.3911107243315503,96.56918910648706,0.015615774904333947,-0.0863198457318904,0.0011182865942901987
0.81,-1.1772881591091082,-0.39929132954911845,96.69025394592144,0.01616490352694316,-0.08791052099724786,0.0041520318002411585
0.8133333333333334,-1.1990524249083092,-0.3996679329059875,96.80964418367859,0.013947793363337029,-0.08322925222053762,-0.000153166687571677
0.8166666666666668,-1.2122761780982712,-0.3988717147904568,96.92148388136499,0.015480512042890278,-0.08032665698273354,0.0028081105674978464
0.8200000000000001,-1.2292369366279843,-0.42701522383961044,97.03847009898901,0.013240132015127854,-0.07845611424222822,0.002086866758118642
0.8233333333333334,-1.237785191992343,-0.40937461297974753,97.13749716509766,0.013433192019306471,-0.07680159084167261,0.0007943314972158425
0.8266666666666668,-1.264349147084035,-0.43101364803258035,97.23914570316882,0.013862492738483938,-0.07170085822056443,0.0015638207827133033
0.8300000000000001,-1.2687801034424082,-0.43337796592076844,97.31596497910755,0.01084994692859272,-0.07004110374013267,0.0026654264284630756
0.8333333333333334,-1.2726772726260942,-0.4389820937211512,97.43131361910795,0.010224112159290958,-0.06967931766314248,0.0006532416576974852
0.8366666666666667,-1.2949018912624186,-0.4468766764255852,97.51926960614827,0.007499053436323157,-0.0656557179392354,0.0006527860876111411
0.84,-1.3021284096886885,-0.4549290575277015,97.62518001275735,0.007000432064974074,-0.06214592246965762,0.0012576050997830696
0.8433333333333334,-1.3114130935720343,-0.4494658691786352,97.70632435011814,0.012354980485711632,-0.062205723271165476,-3.588995698196462e-05
0.8466666666666667,-1.3312218428866118,-0.4572101143687531,97.78678300239449,0.010332772280031554,-0.05796962218351567,-0.0009801171158253755
0.85,-1.3360255904447493,-0.4585100406513649,97.86728175978305,0.00919087350926605,-0.05611384450097075,-0.0019423723139048068
0.8533333333333334,-1.3443140257449182,-0.4597216930037687,97.94975982665169,0.007865347746275895,-0.052826576229167956,0.0021628965755568466
0.8566666666666667,-1.3492416587850407,-0.4753682263913222,98.0370504315926,0.01002969628032426,-0.050197898488127925,0.0005939454799337689
0.86,-1.3707668299033262,-0.46939966168291597,98.10484080512501,0.00848111135248923,-0.04836989420708126,0.001747516293956029
0.8633333333333334,-1.3759324209672859,-0.4714208487459086,98.18132972154197,0.006646405751641872,-0.04411732998784858,0.00011166397164621828
0.8666666666666667,-1.384939880824145,-0.4739608773978099,98.26010745043948,0.006088285098740062,-0.043288231375898004,-0.0010662745588420632
0.87,-1.40043018623281,-0.4707295351179995,98.33782014697219,0.004092816609666586,-0.042881873383059,0.002110305135373311
0.8733333333333334,-1.3934398333631113,-0.47939347650829467,98.4036994777095,0.002638400186960962,-0.03789202909952866,-0.0016037106254179734
0.8766666666666667,-1.4007826065795874,-0.48803903119949915,98.48413072535101,0.006752087372218064,-0.03349523412497207,-0.0029288306209118565
0.88,-1.41724899740224,-0.4707724437633351,98.55111470284095,0.0035876987024284074,-0.03262880243059549,0.0028244132336118165
0.8833333333333334,-1.4199781253487282,-0.4828034359775536,98.6262155320323,0.002110925640854515,-0.027697195651017883,-0.0007238533392710584
0.8866666666666667,-1.418854592822913,-0.4717168847627889,98.69819008127526,0.005391925075567206,-0.02553797091792597,-0.0005953221818986086
0.89,-1.422501319006354,-0.48698607856297504,98.76858066744113,0.0014311168987316619,-0.02394849097521471,-6.973890223351449e-05
0.8933333333333334,-1.4292774296402135,-0.48579720473107746,98.84237440978318,0.001064274223316257,-0.019385355765601252,-0.0021748700617092945
0.8966666666666667,-1.428052943877931,-0.4884635455029546,98.92150303151479,0.0011736325149975604,-0.016735202108662917,-0.0008057205566343982
0.9,-1.435823278050736,-0.4917985788401862,98.98474574556616,0.0012880817890470856,-0.01554619998879152,0.00011431977816048048
0.9033333333333334,-1.4246322415138477,-0.48637794308201243,99.0728937097413,0.00011561408500286872,-0.011634677601365464,0.0010606920485789826
0.9066666666666667,-1.4397247074385566,-0.4891693334231456,99.14983469825626,2.7083893932373666e-05,-0.01207088044429378,0.0015900426073829708
0.91,-1.434938230263337,-0.47912355015619734,99.22119005483009,-0.0020026784837380704,-0.008872116610661162,-0.0006326674516558309
0.9133333333333334,-1.4421847501282479,-0.478480238690192,99.28633825016256,-0.005275001263604832,-0.002088526770886523,-0.0002849789534466848
0.9166666666666667,-1.437409259247005,-0.4708826764803194,99.36863973916695,-0.0012716582727026254,-0.0020765762739462157,0.000949786495621533
0.92,-1.435017674595462,-0.4764693747674739,99.44822619269559,-0.0023978011331285912,0.003178122951954276,0.0006813890387772365
0.9233333333333333,-1.432935284441556,-0.47348538891137193,99.52276164275982,-0.0027805819354699895,0.005206263615653776,0.0014701439248432633
0.9266666666666667,-1.4279241400513645,-0.4757749014521371,99.59656918069334,-0.002934978438087241,0.0009595940977120149,0.0021073389997043634
0.93,-1.432972854542314,-0.4746069113465983,99.65571938217495,-0.0055294189429933695,0.01095478701311143,-0.00032517486430691647
0.9333333333333333,-1.4243650148567917,-0.464784006535886,99.73617139573464,-0.004941863188674083,0.00922383585184945,-0.0008309127686847649
0.9366666666666668,-1.4088894090797004,-0.45771190163183995,99.80405411776418,-0.005153859671594314,0.0159670036395507,-0.0026038948718974174
0.9400000000000001,-1.4117706071349376,-0.45662711994640204,99.87895570592369,-0.008178689275592208,0.018273022663161866,0.000719262411952879
0.9433333333333334,-1.3998475655445095,-0.4520718998750522,99.94257885753271,-0.005731060738016377,0.020597281343538127,-0.0017191421630575585
0.9466666666666668,-1.3973525600125036,-0.4501576638561374,100.00591526543847,-0.007346583333681797,0.02370542119415187,-6.866361769127958e-05
0.9500000000000001,-1.379866787840823,-0.4481023377302901,100.06936272362871,-0.009332369827806953,0.028141492849848217,-0.0010281913699307578
0.9533333333333334,-1.377021915679463,-0.4428888689408372,100.13025777859129,-0.006996793369578855,0.02526904655941595,-0.0034589222230220853
0.9566666666666668,-1.371187551439018,-0.4338875152280449,100.17459167377866,-0.006600324623934518,0.030911206737589382,0.002040864824682383
0.96,-1.3572515170940973,-0.42398969130296776,100.24777987354558,-0.008686752504179522,0.034829315160961875,-2.6749654340778695e-05
0.9633333333333334,-1.3525010250173384,-0.4238540913812655,100.29716052698578,-0.011791115963483782,0.03482271393055162,0.0032788320572147553
0.9666666666666667,-1.3402329781566724,-0.4198828819915464,100.3413804338313,-0.008570559949041243,0.03734234854849625,0.0020892199775713457
0.97,-1.3327752153901409,-0.40720299122825876,100.39500587462105,-0.010814546988593918,0.03788170505155322,0.0011184134341065443
0.9733333333333334,-1.3265212196534373,-0.40876705174609174,100.44171296661226,-0.009684410404943953,0.040448438757278334,-0.0008474660339380365
0.9766666666666667,-1.308304118286796,-0.400118854438486,100.48318394013367,-0.012981818716551933,0.044465948496427675,-0.0013329444749081295
0.98,-1.290478719169223,-0.395932922512009,100.53075943956664,-0.014704289702708907,0.04444914167210811,-0.0020155136139940366
0.9833333333333334,-1.2780007951742391,-0.38288052259003624,100.5719573312847,-0.014174046969220663,0.04626771863387885,-0.0009414501257882707
0.9866666666666667,-1.2655322763949988,-0.37328257244032764,100.58823209315312,-0.014814376692346858,0.0491570967105585,0.0006594849588371827
0.99,-1.2516299064694498,-0.36493264797363933,100.60190229080635,-0.012606008863104905,0.049298344573336164,-0.0005311870431732078
0.9933333333333334,-1.2369004184394896,-0.3520275118654,100.63218524321937,-0.014616940963708568,0.0535981931776554,0.0007479808468307008
0.9966666666666667,-1.2123452589775208,-0.336993569969276,100.65859461685017,-0.010221452466609878,0.05064455589437677,0.0019799395283492077
1.0,-1.2094455610048294,-0.33873089869705836,100.68349800245579,-0.012744901547183413,0.05475334917672039,0.0007036196900939036
1.0033333333333334,-1.1804626141175074,-0.3183912036603857,100.70831030442444,-0.01358447107050888,0.05529712051285888,0.001970893924931629
1.0066666666666668,-1.173731722246978,-0.31886720190938134,100.71162199301202,-0.015339926933938939,0.056931777619946805,0.005300873509819747
1.01,-1.1497472054880287,-0.30395649543834236,100.73523178312037,-0.01497348563970732,0.058982021133664964,0.0001296016877199447
1.0133333333333334,-1.1291247917639065,-0.2959382478052509,100.75938999637842,-0.014698659609244377,0.06117442231426404,0.001351656184085405
1.0166666666666668,-1.1183870746872961,-0.2946920384805,100.76875449751344,-0.017742263971409454,0.06391045645077724,-0.0020566292900381458
1.02,-1.1044704432762114,-0.28029266447048556,100.78610735064137,-0.01786650025912737,0.06594799143227509,0.0017224447771372942
1.0233333333333334,-1.0769183721218867,-0.26098668061374636,100.80177088856215,-0.012943218414794554,0.06311874834444761,-0.0001438172035329589
1.0266666666666668,-1.0503537837169277,-0.24065396947060153,100.81872644312087,-0.016596817800345033,0.06391388759482328,-0.0017794865776884863
1.03,-1.0357095887310772,-0.24861085263562088,100.82446452804787,-0.013416502061138914,0.06226720865757808,-0.002881028382549009
1.0333333333333334,-1.0146232309864438,-0.224907819646839,100.8516044978612,-0.012513141786473154,0.06636396631321653,0.00326097195071661
1.0366666666666666,-0.9890116839543232,-0.2179597562514219,100.87011517795769,-0.015312054314177148,0.06809988151840551,0.0016573846996182334
1.04,-0.976961214950702,-0.207620204044821,100.8711438820836,-0.012626609296274438,0.06846947900654062,0.0032858491321118384
1.0433333333333334,-0.9547585801454157,-0.1967181114651893,100.89715526727852,-0.018108351690372466,0.06958960409896836,0.001099327350383724
1.0466666666666666,-0.9244741283827819,-0.1854835005160657,100.92331685308291,-0.0144588240705757,0.07066286855436013,-0.0010624745867163228
1.05,-0.9035421854523147,-0.17295664042736844,100.94874667286257,-0.020043973648868407,0.06642258276275238,0.000969567805228139
1.0533333333333335,-0.8789299722729168,-0.16445409035607275,100.95935547838084,-0.014859200829684165,0.0668785359081843,0.00029730974922833383
1.0566666666666666,-0.8505265714629224,-0.15005045275536255,100.99120587902792,-0.016360331863108313,0.06951506228012218,0.0003611339110556405
1.06,-0.8352435824028529,-0.13365905724308402,101.00396101474304,-0.014393453670426826,0.06851555097818463,0.0005431053169415552
1.0633333333333335,-0.8123652796893364,-0.12545992319362745,101.0374141330811,-0.017567486625806893,0.06792912828793458,-0.0002278310832600089
1.0666666666666667,-0.7951829286345334,-0.12890343038926602,101.07410819484636,-0.017247238914436074,0.06845138423053392,0.004697232717571036
1.07,-0.7655604211418998,-0.10042007332473443,101.11424089209056,-0.01847175868052965,0.06790893748926596,0.00014088948677736283
1.0733333333333335,-0.7552943456395427,-0.09381137920036312,101.15744105779201,-0.01727644706655662,0.07025989195203206,-0.0005187946859206039
1.0766666666666667,-0.7164520204550401,-0.09760781488767395,101.18401938162425,-0.016892378470978825,0.06918919813951091,0.0015629221816179887
1.08,-0.7053996344068552,-0.07331418310915379,101.21814629205291,-0.015494706182467627,0.067844793215595,0.0023618755539217173
1.0833333333333335,-0.6695870896341214,-0.06573438150111834,101.26409952959904,-0.015590554000329968,0.0644381331293451,-0.000329775527875143
1.0866666666666667,-0.6593015307762867,-0.053271780941806464,101.30768155451412,-0.01420630532846405,0.06587326000954714,-0.00020878074885739153
1.09,-0.6394039418816089,-0.03481077253655556,101.34677144341889,-0.01639112277765224,0.0658972447180993,0.00023289405107543705
1.0933333333333335,-0.6019495565961891,-0.023410938518290396,101.38802399486448,-0.01055083904499904,0.06552558862464344,-7.77208768874196e-05
1.0966666666666667,-0.5969559343742448,-0.016246007827392744,101.4254893713382,-0.013406058164286404,0.06792387370101353,-0.0004410434184534862
1.1,-0.5707073218093806,-0.006849033226043435,101.47921875221031,-0.014280616089079119,0.060810249810411776,-0.0005970567575845485
1.1033333333333335,-0.5487650304830795,0.0057086992268560325,101.50853892518721,-0.010808280920008097,0.05922559870659882,-0.002193633301952356
1.1066666666666667,-0.5179311449947724,0.008946472335143235,101.53969022377981,-0.012053776275363188,0.06019416203766929,0.0010296791588356583
1.11,-0.5038123063507155,0.032864883708163255,101.5701657714646,-0.015117435065662765,0.057864561743420494,-0.0008962912065232732
1.1133333333333335,-0.48289638722934164,0.03580338480751127,101.61902281549584,-0.011943158694961676,0.057482181570535716,0.0003094957289556898
1.1166666666666667,-0.4674202975659029,0.04550476968956611,101.6490038742435,-0.014373642421210397,0.05227094649231628,-0.0013916785667455291
1.12,-0.4499781152588718,0.05380286648423441,101.67035706267862,-0.013426591593542557,0.05314648296798438,0.0024049021020141263
1.1233333333333333,-0.4181163888223723,0.0688590128780097,101.69544965530396,-0.014748458304763016,0.055043226517626526,-0.0010816833698691442
1.1266666666666667,-0.39768696593392344,0.07110125318300722,101.73325376448219,-0.010868202534686008,0.04944980217798862,-0.00017624005713500832
1.1300000000000001,-0.3943001578076189,0.0820152691148888,101.76132700099686,-0.010777564908184338,0.04607513797820234,-0.0008737987801833266
1.1333333333333333,-0.36938537028055296,0.0969847341573853,101.79090033127336,-0.011488001827371792,0.04598332834804147,-0.0010917485824523615
1.1366666666666667,-0.3476162554669306,0.09798049367818222,101.81474148584573,-0.012138587820798285,0.04333847156922748,-0.00034304205046630393
1.1400000000000001,-0.33817438335708255,0.10693485673597491,101.85050837844567,-0.009005917905207637,0.0409811765539646,0.0011995426620985434
1.1433333333333333,-0.3148823774938585,0.12003486898497964,101.8691435716986,-0.010462960425146953,0.04273518341198001,-0.0003851600694158408
1.1466666666666667,-0.3114071474473876,0.12257273766450341,101.89196043438427,-0.009245943017998888,0.038539526883368515,-0.0002458331046634255
1.1500000000000001,-0.2987050910187201,0.13076923625326647,101.91572651953902,-0.006613144027129405,0.034060329663028605,-0.001322214356490275
1.1533333333333333,-0.2791812779758703,0.1437681448090777,101.94533277446841,-0.007143457788394878,0.03269377612566953,0.0020097749281520433
1.1566666666666667,-0.26266835974319963,0.14504809705656366,101.97218735956261,-0.004293757273450893,0.03177763481705466,-0.0004832841799825702
1.16,-0.24814497029830354,0.1471588144457379,101.99589232792381,-0.004777673689784538,0.02757681713244102,0.0017557805508014485
1.1633333333333333,-0.23801239472858599,0.15014849687585188,102.0198375584375,-0.006389319969670567,0.02561849818099853,-0.0023114551574744107
1.1666666666666667,-0.23690644586410325,0.15954506070734734,102.05316570187394,-0.0058515959743331725,0.021119411026291123,0.0001325663127157469
1.17,-0.21726957950215953,0.16024895499684427,102.0766814214237,-0.0052538697450925835,0.0217828224250498,0.0019302390607474967
1.1733333333333333,-0.21477398046110588,0.15454959365796853,102.09434742937293,-0.00462653966526184,0.02165208213247237,-0.001132992535071591
1.1766666666666667,-0.20689653334238414,0.16874059478877151,102.12017921307037,-0.004598077532944508,0.014011659177247848,-0.00014123485166287787
1.18,-0.2023657713457335,0.1669069062781799,102.14712711238423,-0.004392708580630064,0.015489220868817296,-0.003302280827926413
1.1833333333333333,-0.19582530520040883,0.176041679660687,102.1800706596978,-0.0031156375546602592,0.011977709820400521,-0.0019738637554220823
1.1866666666666668,-0.18227450758389485,0.16692762989038212,102.19815019485773,-0.004327753055301252,0.007279786878667641,0.0005458090256724417
1.19,-0.1909859399800661,0.1710823654904651,102.22709763712213,-0.0023555577512554718,0.007099140589933771,-0.00018430766294718273
1.1933333333333334,-0.179100938906405,0.18498478731133977,102.252245844403,-0.0027083592652955954,0.0023186194972989595,0.00010402316010483704
1.1966666666666668,-0.17585523643559778,0.17910514945786069,102.2959809223389,-0.0023844111273331322,-0.0010397672029928966,-0.0034224380243564685
1.2,-0.18315536250249673,0.16568384975688286,102.31932005229535,-0.0003276316436646002,-0.001987282898001057,-0.000380277375214956
1.2033333333333334,-0.18110869297150445,0.17035062563327527,102.34387437657038,-0.002168574673730258,-0.0017537529613722096,0.0011429339203018328
1.2066666666666668,-0.16963547545363292,0.16605221634209041,102.37040293927699,0.004179761337040445,-0.006923127537052811,0.0011273618814045833
1.21,-0.17662191590161247,0.1657438916239134,102.4081450590566,0.00027143940196341064,-0.009402335569368717,0.0010233444923823589
1.2133333333333334,-0.17954632874058096,0.16768426804690623,102.43561215080383,0.0022689086741534597,-0.014061155348178964,0.0011204900074303632
1.2166666666666668,-0.18211067238219475,0.16501748457134577,102.4561781393447,0.0021572332396605966,-0.015414299697426038,-0.0012564044853318912
1.22,-0.18960024380848983,0.17056540029175385,102.48484081517617,9.843170176890249e-05,-0.014431108341610568,0.0032755175583814586
1.2233333333333334,-0.1941010398967107,0.15711122837777583,102.52037479164738,2.6743767096730833e-05,-0.020567258858693878,-0.0006865498661362035
1.2266666666666668,-0.2034252939819217,0.152911548330851,102.5445093824193,0.0013235991054528404,-0.02408074919371652,0.0018585476268128606
1.23,-0.20668613054103405,0.14472410173121059,102.5703172652817,0.001819053099986338,-0.022014144245563062,-0.0010468835385040753
1.2333333333333334,-0.21093181662729635,0.1329996531842123,102.59591865543342,0.005057681736964945,-0.02697390078967816,0.0014427261218778397
1.2366666666666668,-0.22752607473078018,0.1314787683256186,102.61439363776151,0.009972295352117955,-0.030232940961302114,0.001538916887441641
1.24,-0.24362388222596218,0.1416833285603728,102.64826653026707,0.004282174970091745,-0.03074281424677316,0.0025212858239044024
1.2433333333333334,-0.24557114877672,0.11114812097214229,102.6591112729437,0.004859519521911329,-0.036185161388025425,-0.0007264344919343228
1.2466666666666668,-0.2583674008202766,0.1120803041077504,102.67844574333003,0.006888871012536205,-0.03503825509898931,-0.0005683655570666934
1.25,-0.27527467266341826,0.10879612516357465,102.70596944044777,0.004645990546469334,-0.04064964366188313,-3.5917286603962414e-05
1.2533333333333334,-0.2852151577715018,0.0870715451502746,102.73167105155433,0.007330758284150935,-0.03912334652206804,-0.0037514785931406316
1.2566666666666668,-0.30126156272338717,0.09714848389338812,102.74604323720916,0.007829812186477084,-0.043055951888407946,-0.0009813478511218306
1.26,-0.3208510756270192,0.07474299106572348,102.7737873805639,0.008070431027666178,-0.04572259123000224,-0.0010921159250570555
1.2633333333333334,-0.33391231302325125,0.08323777525402867,102.78079197969603,0.006433957050624318,-0.04465457848482894,0.00018066258510745375
1.2666666666666668,-0.35666480698643915,0.06989678421558607,102.79908145534989,0.011818115432729615,-0.044760987423102035,0.000999115637255621
1.27,-0.368051752851781,0.04602044107863216,102.80941447670513,0.008455338373570688,-0.04809349077593229,-0.000786474426662003
1.2733333333333334,-0.3909570108214439,0.03034811446996359,102.82541411530835,0.0058531158808624376,-0.05243618729599571,-0.0006172119316610322
1.2766666666666668,-0.4074834821186276,0.02751909366138469,102.83949153529889,0.01090456377369219,-0.049385665085342804,-0.0004301638161981643
1.28,-0.43092519384826244,0.01078735757448191,102.8657432288991,0.010164951675683372,-0.05000966199978486,0.00023644253816266125
1.2833333333333334,-0.44359106336017406,0.008047899509557747,102.88126898664284,0.008678631621916197,-0.05405247463525654,0.0004673353900162402
1.2866666666666668,-0.4691551325944844,-0.007762649294332205,102.90296915437399,0.008144850683524699,-0.05355766770761036,0.0011668946719035577
1.29,-0.4824889814142318,-0.020042432356773585,102.90992427041834,0.008274690238313608,-0.054652496393669744,-0.0020544657265239466
1.2933333333333334,-0.5153568415160076,-0.02720157654588335,102.93482229393611,0.009505362932047071,-0.05578499754940264,-0.0025265657369990227
1.2966666666666669,-0.5271463750601366,-0.04408438730302993,102.96055476469168,0.011531370007066147,-0.057859610800828645,-0.0006581971301594585
1.3,-0.5587937897432944,-0.057903608305333976,102.97423168584447,0.011535833391642226,-0.05790810484130324,-0.0001791931209993652
1.3033333333333335,-0.5844589356371768,-0.0662223185267632,102.9909273312402,0.009794759904628607,-0.058235728031761864,-0.0033070178404864263
1.3066666666666666,-0.6098987231185857,-0.0739975852141757,103.01525911382761,0.011797277648035787,-0.05551117882701445,0.002765533818444123
1.31,-0.6282455681900615,-0.08644414077364221,103.03489363139508,0.011440573132783424,-0.05826745669830486,-0.00020749199051779026
1.3133333333333335,-0.6504372050898242,-0.10476543911396877,103.06499492577188,0.012208191669457124,-0.06090245631919087,-0.002126122508532188
1.3166666666666667,-0.6669904300627301,-0.11651887231981109,103.09469958009248,0.009050605531697302,-0.05996807943365911,0.0014142011322060557
1.32,-0.6974541287453513,-0.127086311653217,103.1278441482469,0.009458109862848053,-0.05768537542332523,0.002073084093860511
1.3233333333333335,-0.7293572842069299,-0.13134266101008,103.14904854099012,0.009522149596905886,-0.06124954593254888,-0.0008474541857924767
1.3266666666666667,-0.7465258963557757,-0.15172748770489639,103.17894405825324,0.014154786115307065,-0.06053150737564368,0.0019568326415424957
1.33,-0.7710434772409585,-0.16865702208484668,103.20734657601413,0.012477084096837,-0.059347885155483386,0.0010815676401012692
1.3333333333333335,-0.7919319754626076,-0.168739358841576,103.25059783329583,0.011352224618522573,-0.057889577227579044,-0.0009497616338299363
1.3366666666666667,-0.8198743795177754,-0.19560774250930651,103.27312535692865,0.008113142926069756,-0.05814106581441399,-0.0004961248377233542
1.34,-0.8504113905322952,-0.20395638801108695,103.3087270449027,0.011810418758106352,-0.054715174116532914,0.0012755796226422184
1.3433333333333335,-0.8680877804805847,-0.2190688576140776,103.35603667388219,0.011984249336372304,-0.055732474365467306,-6.819909631576603e-05
1.3466666666666667,-0.8888376744510066,-0.212505047529815,103.38702763230353,0.011266835570213905,-0.05630089356326154,-0.0009322556895332445
1.35,-0.9096308786481553,-0.24278634089754977,103.4402345203201,0.007429901836678654,-0.05420098418742762,0.002631841584437553
1.3533333333333335,-0.9373181143818474,-0.24626664404747253,103.4654891459814,0.008881261279418186,-0.05651261875135209,-0.0015152819917478558
1.3566666666666667,-0.9528257814446174,-0.24947017895880408,103.50982416755488,0.00948822189010079,-0.055988812208478435,-0.0009038384709014104
1.36,-0.9766372251626306,-0.26519769737297333,103.55484507628695,0.010149494075364966,-0.05131160736301248,0.002134592821398498
1.3633333333333335,-0.9999624688663722,-0.27667839078232737,103.59108778535241,0.007038517762090074,-0.04958927244287286,-0.0011854038925666966
1.3666666666666667,-1.0138109517212874,-0.28236274767456143,103.64607730394383,0.009024242773055333,-0.05169521148211807,-0.002310694548044847
1.37,-1.0401804354034425,-0.28917646887359955,103.67652168795024,0.005534725324455849,-0.048802176589397214,0.0009517475036947878
1.3733333333333335,-1.0521599001742872,-0.3053294287758253,103.73522227756156,0.006392622465068304,-0.04752447091525108,0.003503786926833461
1.3766666666666667,-1.063462882878699,-0.3107777733110411,103.78174220488663,0.007472058098469942,-0.04703776011151521,-0.0016989929059718046
1.3800000000000001,-1.0899051492213794,-0.3388246466128356,103.82446811723145,0.009535156942931052,-0.04438149273848885,0.0012876656286426856
1.3833333333333335,-1.106725068983526,-0.32663892190054283,103.88925655957678,0.004940805861002172,-0.04096407986499601,0.000509984442204644
1.3866666666666667,-1.111159745619193,-0.325039286304041,103.94303887115782,0.006327183691121545,-0.03774987407791344,0.002322850659059431
1.3900000000000001,-1.142115194158202,-0.33058181587986274,104.00460114396566,0.005904296459981228,-0.040436930352526525,-0.0004470549375324535
1.3933333333333333,-1.1539769148372763,-0.3482436067333109,104.06830469387879,0.0035661188565804277,-0.036141216858867314,-0.0005298373442809268
1.3966666666666667,-1.1554529475085236,-0.3548842600617176,104.1254743674277,0.005312176877327925,-0.03264207174672724,-0.00041460561549856533
1.4000000000000001,-1.1742513359154965,-0.3559463612245087,104.18981580542606,0.0034738136604190884,-0.028211011674821235,-0.0011140495227735837
1.4033333333333333,-1.1801656118511696,-0.3674683371346448,104.24983650208435,0.006414428903493234,-0.029171396365516095,-0.0006555028746334762
1.4066666666666667,-1.1923449878712924,-0.36898413603087227,104.33561675319184,0.002527409544879718,-0.030623824298543423,-0.0011878222400110254
1.41,-1.2114338549509849,-0.3621110939264892,104.4038217692657,0.0037118924847982767,-0.027213780157378194,-0.0024824071400428634
1.4133333333333333,-1.2129891905678736,-0.3666985082520561,104.46763407671104,0.0020677403794545335,-0.022244073479849007,-0.0011585753721302138
1.4166666666666667,-1.2136940348047365,-0.37739205721523866,104.5459930788076,0.0022042430221295506,-0.021126353154619654,-0.0014704736811995704
1.42,-1.2220673395028836,-0.3741987869612121,104.61221285606447,0.0009051602449228504,-0.0209885326940982,-6.446496928965932e-05
1.4233333333333333,-1.2307379682687076,-0.37328714797870294,104.6737663413401,0.0016639324598510961,-0.020250049161907677,0.0010180325619083732
1.4266666666666667,-1.2243458790066697,-0.369596233196239,104.72016372393735,0.0013078672295346837,-0.016170218434423914,0.0016605664805664714
1.43,-1.2309908111986791,-0.35975540232685566,104.77337065923209,4.444901978063341e-05,-0.016253393298957534,-0.0006250397427513352
1.4333333333333333,-1.2278650540795746,-0.37157071346036424,104.83621346084585,-0.0007388770745445699,-0.009573094544704484,0.0019558020757849044
1.4366666666666668,-1.2338813355853824,-0.3680878610214787,104.88328236033884,2.1648217538422748e-06,-0.008274687821849133,0.0007727171305635253
1.44,-1.2322253878874179,-0.3688820518513559,104.94588205587209,-0.0014264834743992066,-0.007839570322826023,0.0019684642011112753
1.4433333333333334,-1.2281186328944487,-0.36380474230780646,104.96410245290029,-0.0008394574296718332,-0.006414500295275436,-0.00021508072301889693
1.4466666666666668,-1.2192196482224422,-0.3684329002705556,104.99512849700463,-0.0020689064703230753,-0.004413242468010739,-0.001388921977977327
1.45,-1.220418250989793,-0.35914447790231213,105.0224766147616,-0.0029225336713175334,-0.0009981231176606183,0.0009227419654688719
1.4533333333333334,-1.2160649686344118,-0.3519727485712858,105.04478771208645,-0.0020097635921126305,0.0016673175891605417,-0.0009325859357940291
1.4566666666666668,-1.2051827503282184,-0.34700763508441523,105.05777214402406,-0.0018787257225059608,0.0013964052100396227,0.000631442198878613
1.46,-1.197261293388896,-0.34035552208747216,105.08091246193571,-0.005488705704193259,0.005442123016432072,0.0028482709116143612
1.4633333333333334,-1.1825169479801345,-0.3423392739082035,105.0835589262739,-0.004589356159346552,0.00506644966194765,8.825954644616342e-07
1.4666666666666668,-1.188923956648863,-0.31968230288922206,105.07193102919535,-2.6933235056861814e-05,0.0030314448933023187,-0.0004041492060454385
1.47,-1.1567725945721345,-0.31509142815248903,105.05984888334619,-0.0040737474410741225,0.00839552883006049,0.002174978325864531
1.4733333333333334,-1.1603997612737165,-0.31628842928247364,105.05015747945284,-0.004882155023980646,0.008868917672134456,-0.0008119485980797338
1.4766666666666668,-1.1363313072240029,-0.3122322054802805,105.0386748315074,-0.004458644273182552,0.011765137615726456,0.0005563313612583404
1.48,-1.1247691648199332,-0.2954714241614718,105.02508400482759,-0.006123417999326057,0.013629592123489612,0.0014772358114275885
1.4833333333333334,-1.116740564639815,-0.2801054059357306,104.9991848649118,-0.0043531795257178265,0.011474986918362927,0.0007373238919349504
1.4866666666666668,-1.111457928039247,-0.28078923396764277,104.9542526787897,-0.006872164594165227,0.017271931344646888,0.0005746388020476802
1.49,-1.075202792368448,-0.2697874810014234,104.91939133166186,-0.0044654870840906925,0.015108263792313956,-0.0018712712114285724
1.4933333333333334,-1.0708106439286316,-0.2561619325843014,104.88637181050599,-0.0038308361777292764,0.020095555685789572,0.0003137324431743638
1.4966666666666668,-1.0560556038782447,-0.25040303035496747,104.85902336272419,-0.008046089273764085,0.017979002713243333,-0.0021269654783255807
1.5,-1.026754619949071,-0.22764620821959178,104.83161158335768,-0.007783015387427976,0.020039086219997924,0.0012753373403696438
1.5033333333333334,-1.0119872936131946,-0.22593050232631917,104.80217306942716,-0.002007373423667624,0.018393633259084746,0.0007158862770472513
1.5066666666666668,-0.9994475768156363,-0.2053442259566401,104.78285917545409,-0.0032373606035368493,0.02186481030479796,-0.0009362947808103904
1.51,-0.9789831457006073,-0.21088914848475743,104.76998360392129,-0.004766484725130943,0.025414237379560507,-0.0004192430847224635
1.5133333333333334,-0.963016194504819,-0.20008705295736776,104.74007028662822,-0.005157152992510877,0.021791110460342752,-0.0020677466522368263
1.5166666666666668,-0.9369384816888339,-0.17576961900883187,104.71987918532184,-0.005434507382108166,0.02121820442838437,-0.0007312311716808481
1.52,-0.9132632320013941,-0.16660805212198823,104.6900690209315,-0.007182249111413852,0.02501388310875002,-0.0005387949185357982
1.5233333333333334,-0.8992063660146515,-0.1530962681807882,104.68951399520043,-0.008581445140039688,0.02380905169158974,0.0013660386021589139
1.5266666666666668,-0.8680507065377937,-0.1492497453979273,104.67931012614646,-0.003830550043720425,0.021168941207728775,0.002074445276401771
1.53,-0.8491737110553097,-0.13082575201752206,104.6725119830369,-0.0058329362495703726,0.02075567537907562,0.0009332464772749312
1.5333333333333334,-0.8329776936543805,-0.12522934449231587,104.67780097906454,-0.006969921748289448,0.024341340868342467,0.0007601749154779193
1.5366666666666668,-0.8182081242739597,-0.12080270679653647,104.67498073274926,-0.004539489275097687,0.02472993959898804,-0.0004595188328024845
1.54,-0.8039878474748031,-0.10286220303726885,104.66886965235808,-0.004919242964958851,0.020579214277142852,0.002950052880414063
1.5433333333333334,-0.7820459007407133,-0.08795366202702468,104.66814354457874,-0.00698650421001772,0.02274241177408247,-0.0028724964458341174
1.5466666666666669,-0.7657534990797538,-0.08541942867449837,104.66661922661567,-0.005780558679145903,0.02140394790791867,-0.0002541644147622339
1.55,-0.7439319009470113,-0.06319193509021946,104.66405826020895,-0.008168070498322352,0.020271114976053387,-0.0007554472932031587
1.5533333333333335,-0.7198848558950665,-0.05369543577424206,104.66417096569164,-0.004069944776156463,0.021904388532429462,0.0016809258660991097
1.5566666666666669,-0.7026021418081126,-0.05192540761281784,104.66998955333746,-0.008208447654343545,0.019458303707877544,-0.000885806104697532
1.56,-0.6885088476938359,-0.04768952954991145,104.65912664574358,-0.004077995169715274,0.02007049397495805,-0.0004719586235667304
1.5633333333333335,-0.6636776960773624,-0.03138072449851013,104.6519335819925,-0.008217532047605072,0.020070601112493307,-0.0003835944581051505
1.5666666666666669,-0.6514211787640335,-0.03165283191025851,104.6341027164503,-0.00555219119697459,0.0164773660322816,-0.0009089174466763969
1.57,-0.6454102424338508,-0.015080294108508207,104.63036981045619,-0.004197666406024346,0.016799713122322483,-0.0020464568532570287
1.5733333333333335,-0.6239871031908624,-0.010496179450899187,104.6155037531057,-0.004835388907311699,0.01484951662021632,-0.0015719337958734537
1.5766666666666667,-0.6092456770811321,-0.008301249021867085,104.60882225329294,-0.006398380295873268,0.01396408075826931,-0.002489697391056508
1.58,-0.5995660557675624,0.009000575172570642,104.5858361312583,-0.006947682737594106,0.011717443318980418,-0.0009690352446397349
1.5833333333333335,-0.5839171938397197,0.0020173192538612836,104.56005906935606,-0.0040635817077452506,0.01179424915015008,-0.00022442581356398503
1.5866666666666667,-0.5656638317122682,0.015490128350558342,104.53319640118582,-0.0037723130487167544,0.008059529131925697,0.0008044335148190058
1.59,-0.5648090490100324,0.020187902105852733,104.50436305871999,-0.002919948348522275,0.009792509250890386,0.0015960674246741412
1.5933333333333335,-0.5585415743574135,0.018884781567478973,104.47739988219419,-0.005420041702014013,0.005833074147132479,0.0026165987878939887
1.5966666666666667,-0.5425487814651919,0.016646065517288044,104.42772451953503,-0.0013969020693616857,0.0030822753608602525,0.0016572549872579125
1.6,-0.5399181768588251,0.02753229509135477,104.41009788663311,-0.004573172359193437,0.006006854697638853,0.00033412252541688677
1.6033333333333335,-0.5329830082977114,0.04733394587906749,104.35783432297461,-0.00262188209654265,0.0030571294526102384,-0.0018694625365706374
1.6066666666666667,-0.51883648716163,0.04097979296380646,104.2965814333317,-0.0032344963787848367,0.000993732411873836,0.0012411767869581803
1.61,-0.5231124459945793,0.03830730023366639,104.24877524082846,-0.0019357607300267616,-0.0014880371404871167,-0.0012571766055342202
1.6133333333333335,-0.511882602477912,0.041014308304284354,104.19344684746717,-0.002986603529298768,-0.0002209637954455328,0.0015353621061505592
1.6166666666666667,-0.5055884931704062,0.04874292803046598,104.13864154757526,-0.0013172152183528064,-0.004293797976913547,0.003154859469485238
1.62,-0.5131948010493044,0.04433151222473069,104.08120821133795,-0.0022476628201534813,-0.005971086421594498,-0.0016239893868408293
1.6233333333333335,-0.512837597569928,0.043405155471773434,104.01525281333886,-0.0008308673451871727,-0.00599205187297885,-0.0006237205706808574
1.6266666666666667,-0.508385930599122,0.03653418646394543,103.9399060924595,-0.0014351335638187837,-0.0074210530932014435,-0.0006790459577940395
1.6300000000000001,-0.5098789176474745,0.02701226172553768,103.89187045346007,0.0009856018278965803,-0.009646953243734727,-0.002910884512908741
1.6333333333333335,-0.5218408928033388,0.03445766253493883,103.81625718806936,0.0020911072895979394,-0.010953234080771236,0.0008453023597391247
1.6366666666666667,-0.5224071090510207,0.03194195495573996,103.74950750779112,-0.0023340305251371863,-0.010461209526376004,-0.001667467519765589
1.6400000000000001,-0.5414757106236199,0.024714145521896533,103.68486828147422,0.0009648867595081097,-0.010431330272035784,-0.0009248173843357621
1.6433333333333335,-0.5314677452934544,0.020058032779634513,103.61683986549059,0.0020854410157953116,-0.01201659429497821,-0.004324432678344314
1.6466666666666667,-0.5431806198496034,0.007690595590192458,103.55819394587267,0.003579237683170338,-0.01278416937992686,-0.00014438824671361952
1.6500000000000001,-0.5520096387003325,0.004266181895110568,103.49610755199188,0.00501206945588634,-0.01773940920844951,0.0005485781463792232
1.6533333333333335,-0.5604799555146356,-0.0009251081579639874,103.42375120550243,0.0007333414585347666,-0.01752164913080642,-0.0012112992358490275
1.6566666666666667,-0.5627067433578213,0.002953329303178636,103.36694826529452,0.001414849145570124,-0.021295419696944512,-0.0013794712673684143
1.6600000000000001,-0.5857608477667366,-0.0157673890585939,103.31131230200563,0.0008505416795399833,-0.021644274153004028,-0.0008963090086364916
1.6633333333333333,-0.6085470516863025,-0.015391415621061857,103.24806778297781,0.003244300269143991,-0.022148016435626854,-0.0008790042688458672
1.6666666666666667,-0.6121608228446026,-0.033136619960132556,103.17601128275099,0.005076244644735659,-0.01973902340858528,0.0015923970594537867
1.67,-0.619747405189496,-0.042258578548298745,103.12558428318991,0.001271250502957402,-0.02362414941158087,0.0007889407272283457
1.6733333333333333,-0.647029162788054,-0.04298779264566679,103.07046707121408,0.0035729405794877804,-0.02350794416533072,0.002637768977123037
1.6766666666666667,-0.649705430661137,-0.05649221383663022,103.00453440071543,0.0031281253692867156,-0.028176398521761504,0.0011267386686370728
1.68,-0.6673902861978614,-0.054304333471732996,102.94822360537121,0.0033140525313723797,-0.027332502409936378,0.0009033768835939821
1.6833333333333333,-0.6835383729955504,-0.07270091197494107,102.90425747797087,0.003751217531629888,-0.027477863417519614,0.0025712236823997527
1.6866666666666668,-0.705420261072267,-0.08064722726993186,102.8339878059185,0.002841169832683057,-0.02561084360990457,-0.0015026967264304633
1.69,-0.7116306696219383,-0.0875155754315018,102.78174889384007,0.0029996992391478467,-0.027318501740062007,-0.0037098281020800958
1.6933333333333334,-0.7299269802478989,-0.0992596398219528,102.7336151245371,0.004465925543093996,-0.026994990293341056,0.001593846687505369
1.6966666666666668,-0.7483684535515502,-0.10088867821307065,102.66898094635337,0.00045746740327769816,-0.02693088706182749,0.0023605487519662103
1.7,-0.7638525838402607,-0.11347442980047168,102.60996660831495,0.007834748143262075,-0.026668320233655115,0.0008268452513432226
1.7033333333333334,-0.7740074921824409,-0.11420567670909028,102.56041166334721,0.006335255410887463,-0.028130215391661013,-0.0006518807345549085
1.7066666666666668,-0.7949019320590829,-0.12748276133418585,102.50157651841913,0.007088256283112607,-0.025623707283073883,0.0008645914573017776
1.71,-0.8228286549039621,-0.13686003824164605,102.46918973541953,0.008250374277413694,-0.029780314742590845,5.181882081148475e-05
1.7133333333333334,-0.8477058851568414,-0.1569828009057481,102.40916989006186,0.002061084901131143,-0.025108974993741012,0.001106861323654001
1.7166666666666668,-0.8535111963814993,-0.16793456590630282,102.34350011097223,0.0023185905392005984,-0.02598709669995296,-0.001977381476852571
1.72,-0.8697603702140184,-0.17266953184078837,102.29880307161395,0.0047309200194159155,-0.026230697231643816,-0.0009769104465335346
1.7233333333333334,-0.8847844516308958,-0.17607208135122612,102.23853598578516,0.0017083590161616558,-0.027443272647641834,-0.0009013723538734892
1.7266666666666668,-0.9003726974668602,-0.1716477903617432,102.18410335092442,0.0029429566345370293,-0.026411699494407737,0.0015410367769944804
1.73,-0.912071332819995,-0.19477172742336574,102.13321429605335,0.003098233781856524,-0.027243570573493872,-0.0005454663927546474
1.7333333333333334,-0.9323300876610376,-0.19583009626808467,102.08007331939596,0.005669155337406605,-0.02742776405651183,0.00040796401625985915
1.7366666666666668,-0.9479407314991002,-0.20888669693979714,102.03155462982276,0.003194702934049846,-0.02319567885219497,0.0011899360801564934
1.74,-0.9510617966805285,-0.20889682467948817,101.97667987237293,0.0024181373345803308,-0.022574382748585368,0.0010959141041375837
1.7433333333333334,-0.973660857374225,-0.21819809481498026,101.92815470893609,0.0029906184571983417,-0.02573452161507578,0.002567256685527618
1.7466666666666668,-0.9763373592451762,-0.2251271808188276,101.8834174893105,0.0038907307758229486,-0.02152770376062088,-0.001742267688651448
1.75,-0.9852188232090234,-0.23440856859521902,101.85825616873176,-1.588159077320914e-05,-0.017902394071491013,-0.0021309154248483225
1.7533333333333334,-1.006810259669482,-0.24809076739016547,101.79786511786087,-0.00045579641560764125,-0.02318531825317914,-0.0016313856388344126
1.7566666666666668,-1.024115549140171,-0.2357140149128339,101.74339686682211,0.004521470077450518,-0.022064192301516468,0.0016870152661110022
1.76,-1.0274122367896297,-0.23784724624449316,101.69377741480982,0.003412333894957596,-0.01846349000319302,0.0007668522269179025
1.7633333333333334,-1.0410518328978935,-0.23943797558290547,101.66006713262303,0.0011922913809017683,-0.018053551616326078,0.0015902278568887395
1.7666666666666668,-1.0353476645735744,-0.24499562751985426,101.61890881729823,-0.0001221281522081753,-0.01564772014883994,-0.001305117908545964
1.77,-1.0480526814555273,-0.25492903330389527,101.58089295041137,0.002294164287794376,-0.013326975534021904,-0.001491157940784403
1.7733333333333334,-1.0593004938580666,-0.2565040856152179,101.5491474460452,0.0024123151673915433,-0.015310551124276546,0.002207945621140231
1.7766666666666668,-1.0593081855625694,-0.25350529844282943,101.50842497245343,-0.0012604927396616494,-0.015668079116985076,0.0019910184323597845
1.78,-1.0619519956681598,-0.25671443442979985,101.46601516330698,0.0014156575804425966,-0.011769649823575035,-0.0016174383276553374
1.7833333333333334,-1.061347701085773,-0.2618123843528627,101.43767820141782,0.0028038339147978507,-0.009807861775582112,0.0011969245355970058
1.7866666666666668,-1.0558827562705033,-0.2584018564902142,101.41718605821598,-0.0015101025186888032,-0.012218303100858908,-0.005153378535373149
1.79,-1.0609129255201457,-0.2443165665974263,101.37297420229697,-3.100410861643823e-05,-0.010054593587743342,-0.000992189943157794
1.7933333333333334,-1.0617863892159545,-0.2579900848290065,101.33871897831034,0.002165202051417448,-0.009188906590136287,0.0005147697356385559
1.7966666666666669,-1.066760211909122,-0.24906880594372482,101.3085503021369,0.0007791298112857392,-0.008954732174308304,0.0028139452535438578
1.8,-1.0592347681532035,-0.2606016145560911,101.27938735410116,-0.0027429149961258,-0.007219500135335433,0.0008832474942569614
1.8033333333333335,-1.0406730591407019,-0.2522495893248129,101.2401630803337,0.001875515559852538,-0.005197453600543337,-0.0014989249939813668
1.8066666666666669,-1.050912882654285,-0.24703611607468645,101.19913334621897,-0.0007076666092712065,-0.006663198911000482,-0.0007232800627966992
1.81,-1.0431757926960785,-0.23534769575346626,101.16313079093685,0.00020111297817812057,-0.0030511912853732085,-0.002710701184972033
1.8133333333333335,-1.0355972431634088,-0.2258891524437715,101.13452157221597,-0.0017184703261154085,-0.0027512397419294835,-0.002772094172212125
1.8166666666666669,-1.0314453883170558,-0.2226663301847841,101.09939084727651,-0.001982721677828268,-0.004048773800229188,-0.0021753243066049825
1.82,-1.0171771634338054,-0.22351065037499498,101.05600492156714,-0.001896443675172683,0.0030479807974124673,0.0033417088859357697
1.8233333333333335,-1.0097063131168533,-0.2229309568347767,101.01089106003644,-0.0038019686592724164,-0.0003392804447550616,-0.0035964387704860053
1.8266666666666669,-1.0098422426873066,-0.21027364004090765,100.95178162328575,-0.0040893232672134456,0.0017115374935531107,0.00065238906098791
1.83,-0.996838962892588,-0.2040459003652201,100.90184629122741,-0.0032711362751300438,-0.0010292929943468948,-0.0013266729530851517
1.8333333333333335,-0.984670432885464,-0.20201903907624144,100.8556059296398,-0.0025586230840197502,0.0029523306304123417,0.0013888198845126095
1.836666666666667,-0.9775851689086594,-0.20124129381575973,100.80248781696206,-1.4905179709195828e-05,0.003285156560681084,0.0006800315423879447
1.84,-0.9560149603664393,-0.18037136631707332,100.74925611327835,-0.0025683803497324317,0.005360718168369269,-0.0012200043668086566
1.8433333333333335,-0.9461024896319548,-0.17956275044778805,100.6676761958322,-0.0008434072588677452,8.880781826109451e-05,0.0014870628999235941
1.8466666666666667,-0.9388613850772559,-0.17571009861439132,100.60679736426708,0.0005430655900739373,0.004958598809968809,0.005301467719766664
1.85,-0.9336626983035194,-0.1678895546390818,100.52135105002523,-0.0007505010332648008,0.00022846165918478456,0.0003264068430698965
1.8533333333333335,-0.9082593892043733,-0.16105939982998208,100.43426619359985,-0.002649797285362449,0.005832697479866989,-0.0012268545253293652
1.8566666666666667,-0.8939360380461596,-0.15228435565647677,100.35640465848125,-0.0009271754597897845,0.005200392337980237,-0.0018642561555995759
1.86,-0.8876849832440843,-0.14847281337351875,100.28310560266296,-0.006814573292407195,0.00548096624270199,0.0015630631009076036
1.8633333333333335,-0.8722428971882348,-0.1348908396104452,100.18915527835495,-0.00485646554617517,0.002957957623585098,0.0016010996196948785
1.8666666666666667,-0.8745650378221642,-0.13068740317624933,100.09066447139861,-0.0032626298586937164,0.0074624458116330505,-0.0024604027688544493
1.87,-0.855546723986548,-0.11468577875514271,99.99588818540644,-0.005006704616819091,0.004087495187062182,0.0005968714814487725
1.8733333333333335,-0.8405308914017975,-0.11352807300961068,99.89314270941281,-0.003130074942930979,0.005165674165439263,0.0030926662020472656
1.8766666666666667,-0.8296467895005957,-0.10664634978006968,99.791853897772,-0.003228400457900158,0.006152524666850347,0.0018104256824002369
1.8800000000000001,-0.8217923341949029,-0.10021908036370786,99.6987807583862,-0.0037482277686434282,0.0015875369515942267,-0.002410555402226739
1.8833333333333335,-0.8025855983392044,-0.0924022902779934,99.59295808859001,-0.0006415421020054633,0.00023379261280914634,-0.0020027551722350506
1.8866666666666667,-0.8048041500541914,-0.09387773636589002,99.48354522884837,-0.0015198593817081615,0.0014982804831098933,0.0008034110338299441
1.8900000000000001,-0.7866514397928954,-0.08958506504729194,99.37310655981629,-0.003137473316314669,-0.0005668713873829461,-0.0032317537610988857
1.8933333333333335,-0.7732332620718754,-0.07872297000124429,99.26283509705392,-0.0024193498554459297,0.003112486722817309,-0.001310069781592562
1.8966666666666667,-0.7774571504745562,-0.07652012636171378,99.15670075572166,-0.0026573076847708006,0.0021461947032161777,0.0013872524878922197
1.9000000000000001,-0.7671143180899969,-0.06339055463266138,99.04344995250878,-0.0016516323805429896,8.41622310092749e-05,0.0002952306781753923
1.9033333333333335,-0.760659064733719,-0.05982513610904969,98.9171383186768,-0.001080617412081735,-0.003582974256629292,-0.002346242897930638
1.9066666666666667,-0.7552071920763241,-0.07016832074616007,98.81756546520458,-0.004346740644770955,-0.0021712324430357933,-0.001659004230949476
1.9100000000000001,-0.748285479714797,-0.06185462994226797,98.69851065801117,-0.003174597774768615,-0.002510711267709386,0.0009387219718204526
1.9133333333333336,-0.7361815175907382,-0.06262934475255032,98.58463612595523,-0.0003683588601123579,0.0006323159040892792,-0.0027672827368459226
1.9166666666666667,-0.7466401123661289,-0.06343662970328016,98.46919440908609,0.001836245092080252,-0.0037321226425462823,0.0006143514904703381
1.92,-0.7341861400915268,-0.05456704471698533,98.34495386860868,-0.004379817707047729,-0.0028980939324761926,-0.0004984761267926243
1.9233333333333336,-0.7314153210784252,-0.04800797500565417,98.24307098322478,-0.001013687393416328,-0.0032519431514916883,0.0007267484516871526
1.9266666666666667,-0.7240079688734901,-0.057478226590816285,98.12825486506915,-0.002066765407542711,-0.0033197470498823487,-0.002541353095219921
1.93,-0.7236078863402015,-0.05569670098653884,98.02545365208387,-3.231836584134456e-07,-0.005899624126697665,-0.0024328366089629923
1.9333333333333333,-0.7183482252181542,-0.05523158067003507,97.90418953239465,0.0009946371566971744,-0.006422255945890416,0.0010877327589698103
1.9366666666666668,-0.7289756370366955,-0.05790260277201049,97.80277770808416,-0.0007758658455644236,-0.005707023820327552,-0.001965291898701893
1.94,-0.7345103161742298,-0.06166743045831875,97.69892062699255,-0.0016577608478571097,-0.0072497926629745794,0.00012028709826716254
1.9433333333333334,-0.7354187716562587,-0.059194062554637286,97.59842383830673,-0.00014893255349711335,-0.007021571556008719,0.0004921923142513475
1.9466666666666668,-0.7324844079655045,-0.059995593206406225,97.48733710107739,-0.0019144167021339438,-0.007079962736519975,-0.002177154431693067
1.95,-0.7356675376033196,-0.057381372520724325,97.37640251495932,0.0004819889150041814,-0.0069997525942031204,-0.002112987321071579
1.9533333333333334,-0.7478020927218708,-0.06662722412869984,97.27707888310692,-0.002292182026358662,-0.011948342827873226,-0.0012404591637809118
1.9566666666666668,-0.7495911346801996,-0.06557057038781619,97.17634135153683,0.0018520984053721227,-0.011022084645262272,-0.0004870386525243173
1.96,-0.7570310883303646,-0.06899750796323639,97.06637842821891,0.0010444637981466926,-0.013053036594648935,-0.001183331255054688
1.9633333333333334,-0.7669867436185858,-0.0777144127077112,96.94474652217252,0.0026102226935227017,-0.013377731973776856,-0.003420683711430694
1.9666666666666668,-0.7626977158120741,-0.07650858760499783,96.81649682062611,0.00012270222056829294,-0.009770747902078467,-0.0008556814650621483
1.97,-0.7734457590193143,-0.08856919042313813,96.70331282567383,0.0005136685598687177,-0.012746566451211002,0.0009036554710153695
1.9733333333333334,-0.7962796786982922,-0.09005389056303614,96.57843600849166,0.0020269158006534288,-0.012330275972053226,-0.0008933000818678135
1.9766666666666668,-0.7870054781509912,-0.08498139073428024,96.46638805042895,0.0010738541989539728,-0.01581458988739047,-0.0011399998996423093
1.98,-0.8006176531633744,-0.10796511937073588,96.33355519404009,-0.0008455793863481049,-0.012126287429523283,0.0022607358564554537
1.9833333333333334,-0.8118103694590093,-0.11472765291239395,96.22112577777203,0.0025192973875671765,-0.01376615786728442,0.0005931890825188185
1.9866666666666668,-0.8269744895489977,-0.10144900877733597,96.08800841806435,-0.0021876645782718997,-0.014235172641372317,-0.0002689530436405072
1.99,-0.8228970931494829,-0.11027088167827087,95.96994545893091,0.0010536546751070176,-0.012595743445272162,-0.00022200885304141107
1.9933333333333334,-0.8340062121690959,-0.12091279769679619,95.84095103821434,0.002756763310438959,-0.01317928194903456,0.0022767211147540563
1.9966666666666668,-0.8367720227921117,-0.12191465678591833,95.71601900317884,0.0014937832772168962,-0.01439769180523846,0.0009684766394655553
2.0,-0.8552654093195313,-0.12994790224816327,95.58924299558312,0.0008072541454486968,-0.013423455238159392,-0.0005915731523816431
2.0033333333333334,-0.8571200936896332,-0.13239097139006123,95.44937201754395,-0.00042069139793736877,-0.01455636037184837,0.00041793856620104376
2.006666666666667,-0.8737248306398433,-0.14545648253961185,95.31875838028151,0.0022142154819543174,-0.016088211276081232,-0.0031878952725883153
2.0100000000000002,-0.8795655494043193,-0.14540233957368043,95.17715536242568,0.0009090610791858374,-0.013099153416214522,0.0007856554388763221
2.0133333333333336,-0.8905348847621691,-0.15228713829363677,95.0372516747388,0.0008878471257321961,-0.014981925367875291,-0.000587407262673435
2.0166666666666666,-0.9007187062242099,-0.15166457994932184,94.91024011355957,0.0005395454657187334,-0.013143118929738212,-0.0015130056964817366
2.02,-0.9188528775816347,-0.15654300148787278,94.77602050947489,0.0009167808331898427,-0.010605708237064759,0.00028660790683879457
2.0233333333333334,-0.9168924505053764,-0.16647934680843202,94.64006406025702,0.0024328336995916777,-0.013993967161808403,-0.0009566573603913362
2.026666666666667,-0.9201006866010274,-0.1727181502681326,94.49014504987663,-0.0021387871173415753,-0.012978651366748122,0.00037608325379242326
2.0300000000000002,-0.9384857937168705,-0.17240167158624167,94.34324911141424,0.0005009167727067639,-0.01558430830506981,0.0023204435426537767
2.0333333333333337,-0.9432297376331322,-0.16935521930212333,94.19830651313751,0.0023324599662830473,-0.01249175321459095,-0.0003602037335731369
2.0366666666666666,-0.9503685733584063,-0.1735865595610223,94.05758712561239,0.00088230711202847,-0.009912579094638664,0.0003050920241152641
2.04,-0.9399081958669944,-0.1744210180977456,93.89523827412911,0.0007978872589449518,-0.011550894193168737,-0.0009931547427743793
2.0433333333333334,-0.9601510206218701,-0.18102506755474876,93.74096931829088,0.0016190747061564474,-0.012334766348715403,0.004099698568595454
2.046666666666667,-0.9733961399601695,-0.18291312046169367,93.5574170859972,-0.0011743817219781764,-0.012436885097837863,0.0022450534060502094
2.05,-0.9649865815641936,-0.18234661622953108,93.38104847647989,-0.0002945354981841341,-0.012990685458701808,-0.0007955950227199397
2.0533333333333337,-0.9709462007764377,-0.1839915407941931,93.2094688179461,-0.0026589136036426525,-0.01154740331668627,-0.0004972628184430909
2.0566666666666666,-0.9687019539057371,-0.19012432366529372,93.02834116063805,-0.0005690367393857442,-0.010958761117457264,0.0006448904056419443
2.06,-0.9805241877802066,-0.18586095213794926,92.83813433014883,0.002886105226607627,-0.012913059323374864,0.0016933415520578757
2.0633333333333335,-0.9759414589287021,-0.190844456733714,92.63339908633601,0.0024619121130444992,-0.010020278207587583,-0.001683922737161342
2.066666666666667,-0.9847294091662387,-0.19581233572343026,92.43659137078784,-0.00024266195236637443,-0.012470695279333971,0.0016601473875936718
2.07,-0.9710078951303999,-0.1955319108773448,92.20206451751876,5.299830678638144e-05,-0.009043320333384317,-0.00028113070242929224
2.0733333333333333,-0.9807142107612743,-0.19048221424604003,91.98932340569401,-0.0008198945639274884,-0.008338563698521156,-0.0014105764556463594
2.0766666666666667,-0.9721152559395867,-0.1833306076126786,91.78553624964417,0.00023266748484597656,-0.006581498229970764,0.0009745396734676766
2.08,-0.9756963238280751,-0.18345431938372805,91.56613488196191,-4.629566333720601e-05,-0.011849975154177798,-0.00013466242139067013
2.0833333333333335,-0.966399825350559,-0.18539586252358908,91.35022798357032,0.0009110301540450668,-0.007865355975983965,-9.275908972444791e-05
2.086666666666667,-0.9805426530633334,-0.18246864667100654,91.11237174392808,0.0012777127720885772,-0.00727223154343218,-0.0009182171416656627
2.09,-0.9622671738354294,-0.17129168095604966,90.87741384018794,-0.00021331950769119627,-0.006091462908848045,-0.00011175648083576772
2.0933333333333333,-0.9652897760669283,-0.1742641544103707,90.63711522268106,-0.0003964465172599271,-0.0055133681795308375,0.0016622781249413599
2.0966666666666667,-0.9516200833106918,-0.1709750974018358,90.4103265521965,-0.0011134870932703648,-0.005022256750915234,0.0012054817390157438
2.1,-0.958482822289307,-0.15941048154246792,90.16375747835158,0.0010653343746721278,-0.005092806663658445,0.00029421033673176963
2.1033333333333335,-0.95221632974866,-0.1695760685528592,89.92732865335299,-0.00013576646485951704,-0.006914978495684563,0.000787774824380464
2.106666666666667,-0.9289549338331957,-0.1658937957313986,89.68617238890863,0.0011000829730189433,-0.004256902785099751,0.001290192121438705
2.11,-0.9415823901751496,-0.16715608005750174,89.42874984018901,-0.004507421587440398,-0.006188646010331644,-0.0030990779164097137
2.1133333333333333,-0.9355062836452507,-0.15468415356410933,89.19649733550621,-0.0012145591371701568,-0.004901466794135975,0.0019522123749479425
2.1166666666666667,-0.9307337938776276,-0.13632680151480528,88.94052573969849,0.0012015327739494438,-0.006053964624322627,-0.0012814552304110432
2.12,-0.9229512816083997,-0.14678619730664275,88.70739075855698,-0.002746332035365719,-0.003019692882187187,-0.0010101513409732164
2.1233333333333335,-0.9183504176878752,-0.14867350613871486,88.4595500196781,0.0002561504533249106,-0.004873707827122839,-0.001156825558570587
2.126666666666667,-0.9202647864913646,-0.14282413507395839,88.22857956730226,-0.0011895996122561036,-0.002617868088398992,0.00030996001490809876
2.13,-0.9015108058392888,-0.13902769211148558,87.99265080273972,0.0016871451108140928,-0.003308494020368201,-0.0016867807426472216
2.1333333333333333,-0.8965937549331314,-0.13909265851863584,87.75264168336815,-0.0017071471334628055,-0.004874064603039598,0.0012094998629747973
2.1366666666666667,-0.9007867339892128,-0.12851189340748084,87.50682323707973,-0.0037364298782897303,-0.00460477859927257,0.0010708972125811954
2.14,-0.8886849219383285,-0.12763136096962582,87.2719220795196,-0.003891458209662246,-0.003597933377137289,-0.0010039797767625203
2.1433333333333335,-0.8806129747957031,-0.12822776691282403,87.0466737148921,-0.0002509926507200045,-0.0038502369098025115,-0.0012738026678894706
2.146666666666667,-0.8801322460035579,-0.12217789556668912,86.83191186390478,0.0007048031919930695,-0.006797968490563326,-0.0016949120426409793
2.15,-0.8646004071298911,-0.11045803272945566,86.62178214232192,0.001545743865830433,-0.0007061018241723543,-0.0003958187443361431
2.1533333333333333,-0.8781464859886812,-0.10972777903539352,86.4062867611493,7.421526516975256e-05,-0.007140982614807039,-6.310234853762273e-05
2.1566666666666667,-0.8629339890781198,-0.10642527298408937,86.17960595546302,0.001251839487735979,-0.003351216771280154,-0.00012024194644703758
2.16,-0.8600907424908989,-0.1086172227898676,85.96718153588073,-0.002302096757611741,-0.0005132921495918435,-0.0001226983142093271
2.1633333333333336,-0.8590919196069312,-0.09500675872397689,85.76237816556258,-0.003015834804404866,-0.0051108697189201115,0.00010022645059672673
2.166666666666667,-0.8598321503614952,-0.10685264059707604,85.55761801352159,0.0016325414469849037,-0.0057888804958905315,1.3374004545889116e-05
2.17,-0.8478021909440808,-0.10837761120614797,85.3580486786736,-6.178929178140798e-05,-0.006239456256966209,-0.0016492420127624987
2.1733333333333333,-0.8512208227268122,-0.10092413868613727,85.14452536984585,0.0008283250954014285,-0.0048946707706642514,-0.0006064205301014418
2.1766666666666667,-0.8514528187974948,-0.0976622958716443,84.93179546387765,0.0015330053294829802,-0.0021814549395642114,0.001143524141150223
2.18,-0.8620983074255266,-0.10327352469978586,84.73802028208716,-0.0017144041965893317,-0.005611782935847663,0.0008954032454186695
2.1833333333333336,-0.839180556527885,-0.09504872257888276,84.52693345617162,0.0010362757511097017,-0.009115974058759309,-0.001151632923196621
2.186666666666667,-0.8537322110112121,-0.09677356324171892,84.32581529009055,0.0017893027377890384,-0.008607028298109307,-0.0023551159210263802
2.19,-0.843166001401691,-0.0917949967660005,84.12448766901974,0.0009269790301522124,-0.006482677806640141,-0.00010158576584329889
2.1933333333333334,-0.8523039176883719,-0.10076840717836279,83.91053341840833,-0.0009737396051430555,-0.0073224182038258544,0.0013978269025668225
2.1966666666666668,-0.8467951251290017,-0.10187626995980309,83.70238990582205,0.0005635785970764971,-0.008164539215111179,0.00013994157748545066
2.2,-0.849797671189961,-0.11216480775509978,83.51117358810633,0.0006046691398213099,-0.010011015856106847,-0.0012805062498471716
2.2033333333333336,-0.8412789644416766,-0.09919497784975409,83.3199870918641,0.0008652772184244576,-0.010861107546965294,0.0004405182627324283
2.206666666666667,-0.8606325117040131,-0.10125829566938276,83.11932940708246,-0.0021447459839415636,-0.0067094839276405464,0.0003461385725444883
2.21,-0.8521458815939351,-0.1038931841357987,82.9290657160704,0.0007202886841018056,-0.00909775426147888,-0.002083491671449587
2.2133333333333334,-0.8567465151304827,-0.10426382085474709,82.73258303007022,-0.0005619640847885162,-0.010845455666275683,0.0011490571879875363
2.216666666666667,-0.8641321411581879,-0.1014488053644967,82.53485630924091,0.0029583291664348386,-0.009078394914604701,0.0016973011963632638
2.22,-0.8589031097771119,-0.11687363363746088,82.34020894095111,-0.0005459571004675066,-0.010585013675230636,0.0011965412013754647
2.2233333333333336,-0.8672097829829235,-0.1134334016420141,82.14314889918445,0.0013962692969788975,-0.010326444169850478,-0.000566115275237204
2.226666666666667,-0.8721180062487298,-0.1158759996843605,81.94565607219332,-0.0002430090117249709,-0.010289168124848784,-0.0010358902176797174
2.23,-0.8855965809215925,-0.12526089850735173,81.75541444647907,3.882538294223075e-05,-0.008389113297168323,0.0026112567120927994
2.2333333333333334,-0.8857169884682089,-0.11978121940835681,81.56912651583767,0.0011734864997508514,-0.008528014837281847,-0.0022788986289679174
2.236666666666667,-0.8849422119760094,-0.12491435384976904,81.37682426239044,0.00032815363274902784,-0.01012409945482028,0.0015769082424100852
2.24,-0.898643597061039,-0.12075378674095737,81.17866700755812,0.0003990960586252668,-0.011454187640311943,9.367795741064938e-07
2.2433333333333336,-0.8898623521335086,-0.13054897009306307,80.99174859848144,-0.0012954987911790441,-0.010117918478491065,0.0031152139593434314
2.2466666666666666,-0.9066706897715437,-0.12832922286560605,80.8120097859779,0.005609291863739102,-0.01063645229750194,-0.002247087456150289
2.25,-0.9146496666304091,-0.13471330809873566,80.61443535902045,0.0024962978309891527,-0.010370895156047258,0.0005878952870599254
2.2533333333333334,-0.908365297524082,-0.13709746117814176,80.43619467462912,0.0018444238723619754,-0.012343690618153217,0.0014427454294647273
2.256666666666667,-0.9205217684308035,-0.13713538527591268,80.24548220436662,-0.0006429753682550691,-0.008574438231218758,0.0022075391804693575
2.2600000000000002,-0.9161441501234912,-0.14006739536900398,80.05417257564906,0.002901532275896463,-0.008933112465355796,-0.0032566909656071247
2.2633333333333336,-0.9206426748868479,-0.14771988236158076,79.89381233622608,0.001339042488659671,-0.009852719544320833,-0.0026063535713632294
2.2666666666666666,-0.9329161375795456,-0.14488840431806102,79.71812674983023,-0.000188615095589481,-0.010016988369990648,0.0014604005486984722
2.27,-0.9389356259503884,-0.14022360811441484,79.54690316795025,0.0016245711563878619,-0.008849455592685788,-0.0016854137180899419
2.2733333333333334,-0.9336370106499444,-0.15392556721483128,79.38928145982943,0.0026695561357634487,-0.011632409722762325,-0.001123455329936327
2.276666666666667,-0.9385310586208647,-0.15277604876578052,79.21912364649609,0.0017196607787037254,-0.010377065122840963,0.0008968591752691345
2.2800000000000002,-0.9396021366810635,-0.1421768628287735,79.05585636225003,0.002194843378014678,-0.009154597172704903,0.0009971505574267099
2.2833333333333337,-0.9470637938256122,-0.15765156616867682,78.90079661549488,-0.0007158672964442962,-0.008591341496590346,2.705467474888699e-05
2.2866666666666666,-0.9527946152146892,-0.15089090078322753,78.75958989716669,-0.00028205983515567734,-0.010517371626234185,0.001382899702005394
2.29,-0.956274888640512,-0.15293755536193282,78.62010746587188,-0.0018605406214039005,-0.009664830574660924,-0.0006211704625464823
2.2933333333333334,-0.9473915184699226,-0.16091455795936468,78.46902841890702,0.0007113816483886096,-0.0069720580982156714,-0.001365064019304286
2.296666666666667,-0.9520276871768188,-0.158985761244525,78.33237172506158,-0.001275325506025163,-0.011134544694058206,0.0019888706399623407
2.3000000000000003,-0.949228379296279,-0.15364258994077734,78.17713764174582,-0.00020420568770972798,-0.004886091756408884,0.0005525759915565526
2.3033333333333337,-0.9581971327177342,-0.1601114390391785,78.02183114809623,0.0008437364800937775,-0.010207522539302486,-0.0025593921321590066
2.3066666666666666,-0.9598919640009541,-0.16406901689923126,77.85225178906069,0.00040148666890208834,-0.007168454695181426,0.0011807736160561913
2.31,-0.9573084345856225,-0.15032811586429307,77.70270909065964,0.002461126244428577,-0.009600165066788645,-0.0017862259162592879
2.3133333333333335,-0.9598361613406136,-0.15344398857361607,77.53209832813269,0.0014594440534197643,-0.008925398849816673,5.69449044722141e-05
2.316666666666667,-0.9621181991939428,-0.15467640840652355,77.36260543407172,0.0014451315586085079,-0.006563374492220635,-0.0005036683793908905
2.32,-0.9614795031020539,-0.1539398994390246,77.19867187349395,0.0004991430742952497,-0.007063647114353594,-0.000173042119804874
2.3233333333333337,-0.9608429422033562,-0.15748257560829015,76.992556154039,0.0008111407916589784,-0.006310706350069563,0.001964713737463711
2.3266666666666667,-0.9519267452754547,-0.14987850499089533,76.77079326485591,-0.0026191471966472432,-0.009761957825170989,0.0018141190353181333
2.33,-0.9451160917189186,-0.14932390174199,76.56313183496215,-9.207511429857969e-05,-0.007204465251338124,-0.0020384482715159343
2.3333333333333335,-0.9510207636600522,-0.1550263881171767,76.35050180217597,-0.0032949943237521053,-0.009195491913708994,0.0018073668907395255
2.336666666666667,-0.9505956250003237,-0.14694533626284448,76.14779540996564,-0.00266734787248999,-0.005865809115256858,0.0019016446296453494
2.34,-0.9400030567917038,-0.14705662131515984,75.93798058322683,0.000558784709227495,-0.0045427577130428476,0.002077675923420036
2.3433333333333333,-0.9507828566150996,-0.14513384391931552,75.71770269514296,-0.0004495979657593978,-0.009788502227808343,-0.0007696440720818358
2.3466666666666667,-0.943188396187169,-0.13645606235566365,75.51137772019464,0.0006815673486313004,-0.0055968791497308075,-0.0009493009369770713
2.35,-0.9400745236145867,-0.1404691517654332,75.29525286746036,-0.0027072960669962264,-0.00414826040991312,0.0004400892245776171
2.3533333333333335,-0.9323910218788893,-0.14327363205701643,75.08907065933343,-0.0016968109505402407,-0.007898802764639378,0.0010041250769712573
2.356666666666667,-0.9258512791584196,-0.1348271904113613,74.86454521085462,0.0009407860079024342,-0.006815949764557065,-0.0005138742336480564
2.36,-0.9339497083326275,-0.13213733917884377,74.6623332525135,-0.002251256078862892,-0.0047861396883324995,0.0002940981125313816
2.3633333333333333,-0.9436491948873255,-0.1376108662365749,74.92909399161447,-0.0023614838620888484,-0.004340033888428021,-0.000792244693256036
2.3666666666666667,-0.9339611511878474,-0.13039621370484508,75.35688554587999,-4.756371018949996e-05,-0.005689650820885423,0.00034144304694980665
2.37,-0.9251882183394662,-0.12832186984357247,75.78236888925107,0.0009739867197548508,-0.003656113761142116,0.0009450265213929758
2.3733333333333335,-0.9203190709075738,-0.12860777645714683,76.20228453956337,0.00020448895131441593,-0.009151852792048993,0.0014881206237705184
2.376666666666667,-0.928202482451382,-0.13150333589910976,76.62479068253403,-0.001039386568536736,-0.005681796873193648,0.0011150521565536516
2.38,-0.9219137998462952,-0.1219691622019944,77.04382981262543,-0.0014253859250768699,-0.007996286380639858,-0.0030337220207519084
2.3833333333333333,-0.9191285062418277,-0.13139875743234244,77.09386469452167,-0.00012594256741494303,-0.0071938632021889175,-0.001180295942324836
2.3866666666666667,-0.9187067021798041,-0.1285031362202348,77.02023986208053,-0.0008282332786023179,-0.008257686919360983,-0.0010876287871367863
2.39,-0.9121492090158346,-0.12136432605188,76.95344290295799,-0.00021097363655188302,-0.0051280129421574444,-0.0005472016476082977
2.3933333333333335,-0.9127353445542007,-0.1272593626337146,76.88301738385115,-0.001831655698548771,-0.005037492235586804,0.000554991666498873
2.396666666666667,-0.9201594626723272,-0.12743914218722932,76.8036995486345,0.000665767335686702,-0.011034902009580547,-0.00037223467842041304
2.4,-0.918012066143881,-0.12388734201465314,76.74065398660925,-0.004323995645563797,-0.0063530335789644225,-0.003936258459973589
2.4033333333333333,-0.9094436666420607,-0.11376060372543498,75.69503436063734,0.0009046673446952268,-0.008307752785421865,0.0006509843295966081
2.4066666666666667,-0.9194835593802378,-0.12074641982924254,74.37038244494715,-4.067050581449302e-05,-0.006833572806429105,-0.0019020319359169078
2.41,-0.907826066446755,-0.12774133632448748,73.04007336931268,-0.0007755034735444414,-0.009188236238467777,2.9479116637097858e-05
2.4133333333333336,-0.9092809438250861,-0.12339987001080877,71.71871992793729,-0.004589452723053923,-0.006923208204642624,-0.0007981782267660049
2.416666666666667,-0.9169694156417212,-0.12723709981156786,70.38026658128172,-0.001533856570683926,-0.0068767256108157055,0.0001616805150738563
2.42,-0.9072549556713926,-0.11910593309831315,69.0576287666633,-0.0004050989244378666,-0.007918906245974381,-0.004189553525642003
2.4233333333333333,-0.9083527882020096,-0.1267407029251885,67.51735814727725,0.0009305524829432416,-0.006868403853766905,0.0025376433629483203
2.4266666666666667,-0.9164233263726566,-0.11943205116650091,65.92337158944252,0.003176121409678316,-0.008073043230755054,-0.0011135349715112586
2.43,-0.9172573104101531,-0.11775644866634108,64.33519473362927,0.0018787735632781416,-0.00945538829243515,-0.0007472129695612414
2.4333333333333336,-0.9110743518279115,-0.12850097528509416,62.72096696055085,0.0033643239832103758,-0.005998741257806501,0.0013295711313975067
2.436666666666667,-0.9203830561482043,-0.13259983773181208,61.12561967718788,-0.00034505550693133196,-0.006332202531471947,0.002200458084548057
2.44,-0.9180649717880024,-0.12916325796265088,59.520879212605614,0.0009448571491471206,-0.01056507575458494,0.0011877378850482603
2.4433333333333334,-0.9258894937594445,-0.127012576707358,57.394839067693226,0.0004631243059604218,-0.009446513528247089,-0.0021875524465883823
2.4466666666666668,-0.9288071484558154,-0.13011320465502918,55.09381561925262,-0.00038710057224890406,-0.008813252765822583,0.0011037895246439591
2.45,-0.938123518788541,-0.13326090665162968,52.78333008939325,0.0012274729320614968,-0.009295956218319882,0.0023536937238713535
2.4533333333333336,-0.931942616960181,-0.13090331308433267,50.48893803848294,-0.002759671172181288,-0.00777764596462994,-0.00010343380494511512
2.456666666666667,-0.9449133345587932,-0.1270897659966823,48.17764968056819,-0.00022681382797412722,-0.009905507223322608,-0.0017056797040511564
2.46,-0.9407825615738632,-0.12008159992403979,45.86732776967742,-0.002089341110811494,-0.00938296489747365,-0.0011301883354364356
2.4633333333333334,-0.951284572866261,-0.12136236808879489,43.975366522075646,0.001516476462498449,-0.0072883286961479155,-0.0018805276556795355
2.466666666666667,-0.9571555815000906,-0.13374993997421689,42.18932060217053,-0.002970941040833314,-0.010802036364476146,0.0011434010094221558
2.47,-0.9679357921827818,-0.12663882677799082,40.423808807102155,0.0005385013660644312,-0.00985275121843622,-0.0006545652741164261
2.4733333333333336,-0.9675332563292994,-0.12929965205564276,38.64003592977277,0.001605991675854189,-0.012552715758167928,0.002172472796110815
2.476666666666667,-0.9646085900524466,-0.12290865872067307,36.87329047712335,0.004418517966672474,-0.008066967417904938,0.0012430591025879803
2.48,-0.9688425516679259,-0.13319596430378738,35.084905599647804,7.428087852946589e-05,-0.005917789522734928,0.0006029352271978868
2.4833333333333334,-0.9753616671924795,-0.13305502129334812,34.294189326050244,-0.0007089774052854349,-0.010897690805484174,0.001832255616814179
2.486666666666667,-0.9834707034520032,-0.13079936369337455,33.786093594452005,0.0012978934305210594,-0.005408488088921035,-0.0031123984751115553
2.49,-0.9874336077967064,-0.13131623081866092,33.285386608934665,-0.0009756279720453852,-0.008523060823511522,-0.0022415114393574695
2.4933333333333336,-0.982578377463023,-0.13574100034044811,32.78386560119876,0.0015216801701991793,-0.007814702514866398,0.003706219790818564
2.496666666666667,-0.9852872203099937,-0.13245166948150414,32.27503293780404,0.0023039324572585286,-0.006103377357932244,0.0009260256036183915
2.5,-0.9866652887469926,-0.1379200742735212,31.761090848077796,0.00022921047598663583,-0.004182163776558032,-0.0013408700637367727
2.5033333333333334,-0.9845394825655291,-0.1293263652911615,31.495995350671095,0.0009951428177209089,-0.006861181723014777,0.0005494098616476733
2.506666666666667,-0.9902440806883349,-0.14059595609192724,31.30169956682667,0.0010513239098250571,-0.008159028591724779,0.0007441103610220732
2.5100000000000002,-0.9842372927816786,-0.13755031467709433,31.095686843595733,-0.0011931038226013486,-0.007404526182796341,0.0025078511186352776
2.5133333333333336,-0.9996683374712526,-0.12567159600057515,30.903126723836756,-0.0031323905544446717,-0.005003935750923885,-0.0010366261970893799
2.5166666666666666,-0.983731318720166,-0.13906375765993456,30.701529484806994,0.002787103974602348,-0.007764129360115116,-0.0021426913223815125
2.52,-0.9888047478123931,-0.14101044966399012,30.50796951029884,0.002443261877380643,-0.0075286464739084905,0.00032140393836528256
2.5233333333333334,-0.9877129714905498,-0.1255607778953726,30.368448846489315,0.0031762094115669708,-0.00629999135739049,0.0026766789778335832
2.526666666666667,-0.9811280057636563,-0.134383856993925,30.224341709245603,0.0016422329982174156,-0.004597479998032287,-0.000388155716371995
2.5300000000000002,-0.9849100157176713,-0.13923330155627292,30.079346194882955,-0.0015269721730793036,-0.005651183174298256,0.0015619556637236436
2.5333333333333337,-0.9796226800151412,-0.1292025994854328,29.954886352662484,-0.0016709244240194657,-0.006754002291999911,0.002711702793030524
2.5366666666666666,-0.9791540209326004,-0.1459931798888604,29.81947704121934,-0.0014915368224673448,-0.004972738559471001,0.0009227940095195854
2.54,-0.9709498310521663,-0.13873365573114887,29.68929621433766,0.0034315238344279735,-0.0064244518342685695,0.0027698676822106214
2.5433333333333334,-0.9667380522585401,-0.1354408023937701,29.544541099841116,-0.003736864045579099,-0.0034497599427732784,0.000561521346606054
2.546666666666667,-0.9729129146415418,-0.13150671852147286,29.41339667696499,0.003212692341517818,-0.00666505561947736,-0.0024186156095780953
2.5500000000000003,-0.9729894991435403,-0.14182324050811457,29.280902288714962,-0.0004230373949463019,-0.004468047275486742,0.0007080626383495582
2.5533333333333337,-0.9693115114457668,-0.12902715820027297,29.14933754963736,0.0026713530539283627,-0.0063124910722611345,0.0006445577735470451
2.5566666666666666,-0.9735826114170487,-0.14195622863043253,29.010534963211573,-0.000988777780581731,-0.0032210079623011924,0.00019376103673538736
2.56,-0.9588809811429578,-0.1295736316856522,28.86611693529646,0.001062504037579447,-0.0061790187759493045,0.001384857978746665
2.5633333333333335,-0.9630514108584962,-0.13151013547507867,28.7764603009819,-0.0007731621384680785,-0.00460744309064578,0.0013544525569314184
2.566666666666667,-0.9581906477432832,-0.134774247563533,28.6812185520904,0.0027530413057468557,-0.00789811446689782,0.0010261980810590723
2.57,-0.9521549541584604,-0.1350998123535517,28.592776142709486,0.0014080789393284368,-0.005165466698482654,-0.0004915712184851129
2.5733333333333337,-0.9425283417275653,-0.12475393880704275,28.519529416254738,-0.00037169798859562435,-0.007242002369806343,0.0006153793053744387
2.5766666666666667,-0.9569453555062176,-0.13492185040784688,28.429906003039438,0.0005623197421322387,-0.0069124764170078005,-0.00047359381393871186
2.58,-0.9519645974806745,-0.13350800728402965,28.348533354773508,-0.0002611355670169831,-0.0059843824072006975,0.001101213773788652
2.5833333333333335,-0.9451183696517028,-0.13453684471821672,28.23139115654662,0.0020461217898144627,-0.008520182037424303,-0.0007306675706043012
2.586666666666667,-0.9467384099874154,-0.1274012939236063,28.101028160438585,-0.0001398296394697332,-0.005031963783233421,-0.0019000783368808725
2.59,-0.9521202441059011,-0.1362895303284714,27.979725160749133,-0.0032369946654048362,-0.005217836333200819,-0.0005210430822329021
2.5933333333333337,-0.9550416840707996,-0.1370957904667699,27.834983873977034,0.0017655590824714636,-0.00660096811287068,-0.0016686169152943708
2.5966666666666667,-0.9433564359739491,-0.12538272220410474,27.714558338489173,-0.002643770451058518,-0.004275090986792221,0.000818792171547668
2.6,-0.9495157645805052,-0.12682068490147294,27.586816457565195,0.0007856400885145542,-0.007561670346436232,-0.0031791512967792555
2.6033333333333335,-0.9438403028913892,-0.1352150854459272,27.447153706323654,0.00116913475814894,-0.006162873832605713,0.0030944879441734663
2.606666666666667,-0.9429266256279183,-0.14070539480411487,27.326699090907372,0.0008974419552475206,-0.006486415852530095,0.0008200369775220546
2.61,-0.9466311987136451,-0.13161793384827772,27.186708266587996,0.00303156341126973,-0.0034267919925236243,0.0011190089667054474
2.6133333333333333,-0.9406402176854871,-0.125849905118699,27.054055049164592,0.001958699917799112,-0.0042029985388814094,-0.002851557694380787
2.6166666666666667,-0.945792213026344,-0.1281174622725053,26.916321308791773,0.0009107212085702842,-0.005970575539370214,-0.0025267539786785562
2.62,-0.9492237416917445,-0.136428584869199,25.33846013521284,0.001129841118465922,-0.0058028590288887304,-0.0005737665299215319
2.6233333333333335,-0.9518784757232904,-0.12782289370526456,26.6479622539613,-0.0005288430952901586,-0.006793986003963936,0.0032852107797676808
2.626666666666667,-0.9492842531016812,-0.12970570710282248,26.51232922108465,0.0008087518071930717,-0.006186080546223666,0.0028083976073667626
2.63,-0.9492129802616802,-0.1218992025344082,26.389326019261716,0.00039524479381817726,-0.0052174227585403965,0.0017224919762437538
2.6333333333333333,-0.9583629886821519,-0.1346195443812399,26.256252336404128,0.0013562496091744768,-0.003915206355081979,0.0015183008101719172
2.6366666666666667,-0.9694403107321059,-0.1396049059679685,26.14711952113665,-0.001835511226007443,-0.006433155507648029,-0.0006385808088712416
2.64,-0.9573166061906939,-0.13227489619869434,26.009155617422117,-0.00022866797717843777,-0.009614420233413037,0.0012836171106230345
2.6433333333333335,-0.9641517510503734,-0.136081792737139,25.890537560479967,0.0012382139151066948,-0.00846978635025608,0.0009430995378200008
2.646666666666667,-0.9661542427483216,-0.13223025370890187,25.770224672995596,0.0004552054303584715,-0.006641508196964416,-0.0006279082664712943
2.65,-0.9679470898883212,-0.1335658434816671,25.640724086219766,-0.000963510458403237,-0.0054423059256594655,-0.001646578504343134
2.6533333333333333,-0.9764832452713239,-0.12897478624085376,25.505090248173993,-0.0010140632639459106,-0.006811066178314342,0.0009853110761624995
2.6566666666666667,-0.9679990828468772,-0.12816746748140267,25.383040340852233,0.001531315308216451,-0.006624874978726363,0.001890613443312854
2.66,-0.9740001764566621,-0.13939724302573306,25.26022919411515,0.0006639557241421375,-0.007009955571257404,0.001092801381552562
2.6633333333333336,-0.982357512142542,-0.14165450015168873,25.149876736486295,-0.0004666105772829453,-0.00675902400347781,0.00040137971202617884
2.666666666666667,-0.9858773700663949,-0.14693927055731804,25.04060364738802,0.0014497303872712068,-0.008133327285247535,0.001260351839226358
2.67,-0.9822875876242356,-0.1309138234766345,24.926665824876768,1.7911158228336587e-05,-0.006185625174151842,-0.0014032554445402843
2.6733333333333333,-0.9757817618524611,-0.13150128573670372,24.818966156499247,0.0015549501546961277,-0.008501511572675676,0.0015272451901649677
2.6766666666666667,-0.9765265062024919,-0.1439811960463939,24.71300726736113,0.00014070087607012856,-0.005696478931754522,2.4956469988264262e-05
2.68,-0.9875327661917487,-0.1315680003977248,24.608876817383244,-0.0003958140019643678,-0.009093821481771585,0.0010693339881402662
2.6833333333333336,-0.9823278915798894,-0.1362317969292362,24.50437963155596,0.0011929699237673628,-0.006483280705087201,-0.0006216204775919569
2.686666666666667,-0.9972691065772106,-0.13265356226402175,24.408146985430985,0.004115482789909097,-0.006859043773375891,0.0022300722102273317
2.69,-0.9883596598178281,-0.14440356563834178,24.30538130208293,-0.0023843317901637876,-0.009551457220492332,0.002622698003204672
2.6933333333333334,-0.9938037144523663,-0.12694894534113488,24.199372846034336,-0.0005146594949602254,-0.0048907466570062095,0.0005555753837845943
2.6966666666666668,-0.9892584700826141,-0.1318349669882842,24.117015685422054,0.0035711529322172107,-0.006986388873949773,-0.0015456956151789721
2.7,-0.9876407910865047,-0.13957647905529705,24.000908375913546,0.0022246046559910673,-0.005502555410206548,0.0015410145261414293
2.7033333333333336,-0.9918102017258763,-0.13286121148138694,23.911319605162348,-0.00017456856112866876,-0.006251409993185458,0.0007333486751577682
2.706666666666667,-0.9932970899649208,-0.13450122002863793,23.808233902487583,0.0019359891172440976,-0.007106569115449699,-0.002205017013449733
2.71,-0.9978599194315231,-0.1343226914218736,23.714616263590877,-0.0001153513557361598,-0.006711276658073563,-0.0018596840063451552
2.7133333333333334,-0.9908003289910042,-0.13522647738555904,23.6220029685228,-0.001322397187087615,-0.0063561120284495965,-5.929451410108321e-05
2.716666666666667,-0.9937798702466151,-0.13193532845054798,23.51908290735511,0.002051344332478589,-0.005770428635183444,0.0002850950558138861
2.72,-0.9926183075348399,-0.13818344190372583,23.42507125024102,0.001153850405798352,-0.008525094519221572,-6.230420746286367e-05
2.7233333333333336,-0.9829130850082803,-0.1333066553831352,23.318476467195122,0.0002628629512709666,-0.009007121891349949,0.001045561066559105
2.726666666666667,-0.9886797200446545,-0.13687976925496204,23.22506414067982,0.0012991498879879168,-0.007983758508509922,0.0010476407223376364
2.73,-0.9944290460964381,-0.13200208639247885,23.137131145756175,0.0007801859080651476,-0.008232919828068279,-0.002402738994454065
2.7333333333333334,-0.993554230465515,-0.12794845906574556,23.009930093999472,0.003548224975429413,-0.004714330399391467,0.004665926967673368
2.736666666666667,-0.9839086071319223,-0.13447831858876158,22.934213546093254,0.0010437205700003192,-0.0026806174644858917,-0.0009315707083273824
2.74,-0.9840309700901542,-0.13534905138907247,22.836431002759788,-0.0025117345614162245,-0.006596903485066402,-0.0003933794712826155
2.7433333333333336,-0.9936081930953042,-0.13640838477769035,22.736885888635054,0.0011552380740260854,-0.006284581204001659,-4.12451522464487e-06
2.746666666666667,-0.9881563412635893,-0.13502171347697037,22.63123182744525,0.0023661890030186802,-0.005277208286194713,-0.001524054542342848
2.75,-0.9928974150571345,-0.12933887780449121,22.535617632571675,-0.0006375821286076082,-0.006260774156098906,0.002765854832412015
2.7533333333333334,-0.9875139715586361,-0.12498661713288092,22.441097933813673,0.0007540862912326059,-0.006014659810793995,0.0018842227562704459
2.756666666666667,-0.9903841114662724,-0.12795037864096032,22.355389110037656,0.000368428723201391,-0.008741094720877649,-0.0010959711549798747
2.7600000000000002,-0.9796327205308144,-0.13496359241275968,22.256232507618776,0.002486897876710824,-0.0053323657622167155,-0.0012993060311161783
2.7633333333333336,-0.9797998358954306,-0.1280662665264646,22.153201705255853,0.0009485825968776214,-0.006953533571055907,-0.0006632282881253294
2.766666666666667,-0.98370012085608,-0.13901670549259038,22.0599650588288,0.0011256845926923447,-0.005439186808812357,-0.00016579629433331622
2.77,-0.9930397476311403,-0.13586470069568307,21.97199577909602,0.0016791428841382502,-0.008250021332447023,-0.0005089888388462025
2.7733333333333334,-0.9862301676551597,-0.13746363737268422,21.86890135128332,0.0010719321465904128,-0.006866560293090761,-0.003075072572866961
2.776666666666667,-0.9886632483280771,-0.13888725839851057,21.768946572507375,0.0014368304045159104,-0.006447971140673088,0.0004936665111298827
2.7800000000000002,-0.9786464448960247,-0.13710623875399144,21.665957694739987,0.0033094876542759328,-0.006196874187548282,-0.00017155099279793
2.7833333333333337,-0.9824775355179853,-0.13468384611453973,21.593246103438368,0.0027039347561317317,-0.006110292736707719,0.0011349732866174289
2.7866666666666666,-0.9933132392116144,-0.13066707223693833,21.508998707153136,0.003915290219536186,-0.006980640110497916,0.0003386362855337895
2.79,-0.9755713472473678,-0.13339880750792887,21.415198795492305,-0.0003427968813575679,-0.007753485015972446,-0.0012729146235958785
2.7933333333333334,-0.9837085614928426,-0.1345180120980861,21.334108858040892,0.00038084927594615877,-0.00555045523471779,-0.00028575336977886413
2.796666666666667,-0.9889075941918891,-0.13814854501684232,21.24824835016517,0.0011400868305002172,-0.008892594860331681,-0.0035651599279104135
2.8000000000000003,-0.9826908277895454,-0.13931982171080726,21.1553377750919,-0.0003328738863440755,-0.006024144201235617,0.0019060721995898863
2.8033333333333337,-0.9867237200217257,-0.1293458610885488,21.081698728851716,-5.327917146805833e-06,-0.005288373333876136,0.001506815406600374
2.8066666666666666,-0.9862161508993719,-0.1420980541881662,20.996956705351607,0.0008763719324970374,-0.003649747793395907,-0.00010026473827706446
2.81,-0.9800786885587871,-0.14194463752708084,20.933592706241516,-0.00172724751601759,-0.0038066417069941086,0.0009165300217798832
2.8133333333333335,-0.9978331120778039,-0.1354196857328261,20.848047830646227,0.0038718880953578583,-0.00648388834793753,0.0016990720241851986
2.816666666666667,-0.9835900066633912,-0.13705535040851055,20.757523991842096,-0.001343903935085488,-0.0049129357843269205,0.0005005369160337322
2.82,-0.9891293264031167,-0.13464246071145322,20.68608553322878,0.000409355129020706,-0.009867879230005249,0.0002019099993897025
2.8233333333333337,-0.9850559020510625,-0.13641868999684684,20.609676904496695,-0.0018152971308348638,-0.005891900090526503,-0.0021825359408673252
2.8266666666666667,-0.9895325306443078,-0.13230454847984569,20.52222901364728,0.0028142147382316136,-0.007541126123740196,-0.0005698646207104296
2.83,-0.9895284028570202,-0.12521608312120508,20.45244222551413,0.001073559595205639,-0.004486063215251643,0.0012914862069261087
2.8333333333333335,-0.989458883941909,-0.1283020803872231,20.37369406582677,0.0008508359567044397,-0.0047190360330123995,0.0018583468881010002
2.836666666666667,-0.9871847052839191,-0.1438033451768603,20.285539135196295,-0.00041828497042624,-0.006403816993690402,6.440945935619035e-05
2.84,-0.9963498550494732,-0.13596928492855867,20.208311906967445,-0.001368153803228599,-0.010031012009306214,-0.00031432259485621026
2.8433333333333337,-0.997449702460197,-0.1345043997975718,20.13796728824707,-0.0028291294079686824,-0.00525228569675937,0.004610918539115636
2.8466666666666667,-0.9909024683941623,-0.13400825426532098,20.067898027901983,-0.0007622673557769321,-0.007205219365157686,-9.520189984418525e-05
2.85,-0.9922934034176611,-0.12839127735949263,20.00430852059791,0.0028121659332569398,-0.009121165501747318,-0.0028579884846025036
2.8533333333333335,-0.9853618160681666,-0.12580381047504002,19.94482619362167,0.0025101474654105507,-0.003864614617568226,-0.0021649741166849482
