time_s,accelerometer_x,accelerometer_y,accelerometer_z,gyroscope_x,gyroscope_y,gyroscope_z
0.0,0.011092460581227363,0.003041776315938099,-9.781281390235806,0.0011376045129239025,-0.0015205744223785276,-0.000754210732159418
0.0033333333333333335,-0.009377748996394158,-0.005466137486327924,7.583987421404478,-0.003745702780770807,-0.0008358795035426701,0.0012868828452803458
0.006666666666666667,0.004870944800826551,-0.004239275187195493,12.075142830775286,-0.0014821568416237038,0.0007319107364856093,0.00019267371519027484
0.01,-0.010736081406613337,-0.0026718616278456862,16.582586060874913,0.0012841050716891616,0.00019474704795432435,-0.0013486190139178342
0.013333333333333334,0.0024825581904723494,0.0030857357558410317,21.071583546343266,-0.004317251361268489,-0.0013120953439784225,0.001072490499746501
0.016666666666666666,-0.007463919258272112,0.0012949155283731332,25.564284913403405,-0.0005474843533473329,-0.0011879111590896337,-0.0013115991090369864
0.02,-0.015180243958942859,0.0007428913895149302,30.07794179933188,-0.00011185004092092383,0.0024440186531408115,0.00022057005626003467
0.023333333333333334,0.006249536263645849,-0.0025090185234761236,34.568645655592135,-0.0005951519919046397,-0.0008338281904753331,0.0014236999991765963
0.02666666666666667,0.0030633064989750293,-0.003241547590900669,39.048284677931676,-0.0006055743267968743,-0.0011357194006909848,0.0009231152829705065
0.03,0.00017847346943473263,0.006062688410577117,43.547237474174196,-0.002817640678004976,0.0018105890029638523,0.0004809824900858104
0.03333333333333333,-0.0032514643133455578,0.0015574941222888752,48.04725332766843,0.0005879531119845516,0.0004545452142108781,0.001796465758445871
0.03666666666666667,0.014963685893717526,0.0008193689627385823,52.540651201874645,0.0014731013871404572,0.0004942522220178488,0.0012405906452568238
0.04,0.004944770816439666,0.0015268206365426557,57.05732096698428,0.0008105154054616906,-0.00018825357494609278,0.003046252719692666
0.043333333333333335,0.006973026554693377,0.0029311789376953354,60.90533931818856,0.0032556916675901913,-0.0008018045868258312,-0.0007972419126812581
0.04666666666666667,0.0012923099297155937,0.0010044344932765444,64.73253099138789,-0.00022170161739271712,-0.0007162552499617257,-0.0010765161318070753
0.05,0.012633584571638613,-0.0074676852121399635,68.56929674573959,-0.0014025462424238123,0.0005328333349739863,-0.0004573918093742754
0.05333333333333334,-1.737514913648971e-05,-0.0027621595301326766,72.41384139059663,-9.154709457097915e-05,0.00022975050884396975,0.0029505328644834307
0.05666666666666667,-0.0014531818902621197,-0.0022949718576149606,76.24388505292752,-0.0014369586619470969,0.0004925801838246877,0.0008107285580782693
0.06,-0.003487130157676844,-0.0020548475230340087,80.08046504256681,0.004752784849487644,0.0017053225974873046,0.0016966053913310486
0.06333333333333334,-0.0012904633738364923,0.0035366081002723353,81.27842183552083,0.0008401335422197306,0.002695737227635417,-0.0011051464646506634
0.06666666666666667,-0.0005978310368524793,0.004845530220187126,82.3858683480098,-0.00016892951902946525,0.0015315964244526472,0.0022358681498512423
0.07,0.008241105692028426,-0.0032422396387252043,83.51702791232219,0.0032347582288087856,-0.00037212425269698995,0.0006443880826187809
0.07333333333333333,0.0015388577625121632,0.000493259122367319,84.61729766570167,0.0005349937114820284,0.0014867828029373519,0.0005304265517270679
0.07666666666666667,0.0043358444455173315,0.0002476068681381073,85.73768935437887,-0.004095589150915041,0.0025329554587197275,0.00013914563149243796
0.08,0.004790860333530346,-0.0017787406595927823,86.85468148625245,0.0005408471133784346,-0.0006160458183286337,0.0003376356943245164
0.08333333333333334,-0.005239137676132755,0.0018804080743069097,86.68986320102768,0.000564209957612934,-0.0013088018674148535,-0.0029856465857019923
0.08666666666666667,0.00039081969715282574,0.0018146780023776926,86.47930030618724,0.002728577085037809,0.0002962213907146094,0.0014693492974293912
0.09,-0.0014176725325125469,-0.0008587324893843643,86.28149260942767,0.0005310173939050112,0.0031582143226609473,-0.004350024675374026
0.09333333333333334,-0.005968535156842403,0.007935644661645865,86.08462970249563,-0.004023720760290216,-0.0013761307496076506,-0.0005392754398767785
0.09666666666666668,-0.004531072882841575,0.002207440644419799,85.8788812988894,-0.0012098631111036153,0.0037864204684877048,7.922653708089342e-05
0.1,0.0037094454951115815,0.0022898294525345144,85.66982053425431,0.0009291572529914568,0.0014865357114132293,0.0009766829412940494
0.10333333333333335,-0.0023686847457386885,-0.009387389990137366,85.50708761128125,0.00020534200321505847,0.002240143003179283,0.00042636704614194354
0.10666666666666667,2.7364336799553583e-05,0.0044882320332823465,85.34570733362943,0.0011115802878693063,-0.0009263902205117896,-4.9780282619959636e-05
0.11,-0.0033506490628590836,-0.003836116118130578,85.17052484598949,7.883005623498931e-05,0.003771139147699335,0.0017180945122680187
0.11333333333333334,0.002899030856026566,0.0011823677278494434,85.02134812547085,0.0004233659198867634,-0.0004189507613214363,-0.002014334017298291
0.11666666666666667,-0.0069806144470739556,0.008711676633088423,84.8469504562974,0.0003539235902905047,0.000522810344103548,-0.0010681464115581752
0.12,-0.002609676252752995,0.01449489301178418,84.67863735376652,0.0006649775906023366,-0.0003694584732874887,-0.0019912668590378077
0.12333333333333334,0.007613176748476616,0.007588408552267928,84.59332872878431,0.0028200261614236824,0.0020222541525111905,0.0016577176916649575
0.12666666666666668,0.002220755954083174,0.006016743901799939,84.49740867832291,0.0017317400796895632,-0.0005252178645257786,0.0020234839328659797
0.13,-0.006484294610766573,-0.002358662231249582,84.41077563735617,0.00010369406862860421,-0.004295798117603893,0.00016072245118392176
0.13333333333333333,-0.0049650541519289625,0.0033769135672794695,84.31613811864108,-0.0006220540055827308,0.0005826838825061491,-0.001118477450722082
0.1366666666666667,-0.006438713013621352,8.168609002998626e-05,84.22002515312764,-0.0035348050534896717,-0.0005641547529970127,0.0004840982628450094
0.14,0.0031410613125952233,-0.0006378397666938305,84.12927993862426,-0.0013180841008212007,0.0010791016872226437,8.55051619795241e-05
0.14333333333333334,-0.007414810474276968,0.006459022230429922,84.1315127152081,-0.0003936316405227017,-0.0006264741690275347,-0.0002881436137360659
0.14666666666666667,0.005801482477339671,0.006538402383770221,84.12222128186765,0.002081396881448122,0.0011416397342762848,-0.0020345330166039004
0.15,-0.005418065367765467,-0.0019270380752066415,84.13177714214069,0.0005680138428264576,-0.0021370418756854327,-0.00019930207757580653
0.15333333333333335,0.0003637394525666082,0.002972266223711251,84.14310352029818,0.0004646300584812339,-0.0018750353059316857,0.0009790668281008138
0.15666666666666668,0.0033707171751970995,0.006149114295426969,84.13257377932923,-0.0015121789490631023,-0.0021459511648165485,0.0022854822756717508
0.16,0.003581841914970566,0.0008141935901378523,84.12683512716299,-0.0005268080657398698,0.0017482182032877015,0.001776030498050005
0.16333333333333333,-0.0013241909176448293,0.0019773963355994664,84.16089012427423,-0.00015313244239590682,-0.0019133478496217203,0.00012002463900096204
0.16666666666666669,-0.002060565657027658,-0.006272682201471695,84.21243928863956,-0.0011491669889153538,-0.002875447576909916,-0.001208825204964716
0.17,-9.482232492692229e-05,-0.002319781031633085,84.25385354641973,0.0005046865951594524,0.0019554046442917103,-0.0018856133149739585
0.17333333333333334,0.001531136987823486,-0.00022747497302675338,84.30730444720305,-0.0005249989920024564,-0.0006519608522149084,6.381049412232133e-05
0.17666666666666667,-0.0026860973824185765,-0.005998665614956297,84.33688133819737,0.004447594321252767,0.002290529154087949,0.002648165449725802
0.18,-0.006063296282272812,-0.0014774738993329655,84.38437159142477,-0.002600091870560386,0.00494039295201723,-0.001683897340195561
0.18333333333333335,0.011038531759225227,0.006962991773932353,84.38130828139128,-0.0012097210145141303,0.0004889723068025058,-0.001350312368100776
0.18666666666666668,-0.006928913501462212,0.0002553837968062717,84.36854406173501,-0.001283883025621484,0.0007464726498128435,0.001636744000707075
0.19,-0.007366892408856036,-0.0005839557226570291,84.37283035816954,0.002233449484703911,-0.0017732829631120798,0.0024512393184208574
0.19333333333333336,-0.003851274591238828,0.0030133002017795237,84.36280406659006,-0.002215480074201446,0.001641025039529205,0.00046459832893036405
0.19666666666666668,-0.01195499942044204,0.0038487455102835374,84.3666816492067,-0.002132968012882483,-0.00011465425948123915,0.0016284306319157902
0.2,0.008299139371023502,3.465398283029352e-05,84.35902035077056,-0.0012191253561189266,1.3885651146651657e-05,0.0014187485539568338
0.20333333333333334,-0.007885017867247001,0.007168573423322084,84.35784096252668,0.0016519228494788014,6.753737646822458e-05,0.0008404162320837652
0.2066666666666667,0.006245832176035057,0.0008536574448600507,84.36918934104146,-0.001252946564990713,0.0008546774267738817,-0.003666183494226595
0.21,0.0017116209510204964,-0.0010590637197021976,84.38297626317488,0.0011514083387201709,-0.0005543239702729526,0.000328465765010062
0.21333333333333335,-0.001392900109124885,-0.0027901927950541106,84.38992999009419,0.000432947712548862,0.001229145285312731,0.0016229775249505625
0.21666666666666667,0.006584689369570134,0.006673200694634198,84.39938504240298,-0.0016530649887578567,-0.0025383781513733093,0.001298033882078833
0.22,-5.4355935444556164e-05,-0.0077370557890480045,84.40445992248989,0.001328799211420027,-0.0014975941994865476,0.0008653234998787443
0.22333333333333336,0.0003018335135824853,-0.004307893154736248,84.4214660324336,-0.0007415509277309824,0.0003894341226228918,0.0007494489098621491
0.22666666666666668,-0.004798866175593247,-0.004949287684632044,84.4409329177938,-0.00092988624681598,-0.0014100915798971121,0.0033149510255278502
0.23,0.002815929181121918,-0.003775799944568037,84.46747744595498,0.0016343820863999857,-0.000880916023657188,0.0015578867607243905
0.23333333333333334,0.006315613940565092,0.0005460094319286074,84.46575219793776,0.002108962518794311,0.0006249856347078468,0.00026944453391085685
0.2366666666666667,-0.005110689832947572,-0.0052552089238232964,84.48147648944366,0.000213240177276477,-0.0018756350064460601,0.001889088193425279
0.24,-0.0007523445609840849,-0.003028982757176374,84.5014903355262,-0.0006178269396440542,-0.0013689438382032887,-0.0007562722694177393
0.24333333333333335,0.0038555927835622903,0.005261839515402024,84.51780157588621,0.0005731276746402504,0.003027706735297035,-0.002131255610761493
0.24666666666666667,0.005932121543858508,0.0012699291486226866,84.53440202031668,0.0012455609616556407,0.001360931810792889,-0.00036255098822102194
0.25,-0.00998514991894804,-0.003285354946714558,84.54302039576817,0.0012455984350401312,-0.0005387222548033266,0.002499399797276233
0.25333333333333335,0.0013335966846305283,0.005345400489409074,84.55141414371471,-0.001026433733798289,0.0023109251043404726,-0.0016309771860382532
0.2566666666666667,-0.0002240065903619508,-0.0031714527249005185,84.57911707958306,-0.0019289457321278927,0.0031595687970041716,0.001332518603815496
0.26,-0.0009220082096196975,-0.0010964833562523806,84.57669206690844,-0.0026776235518808224,0.0009362414519224548,0.0004999793490637295
0.26333333333333336,-0.001110066288405553,-0.0018475986568649411,84.63714127284688,-0.002306276882606566,-0.002923745702271173,0.0006639842096660589
0.26666666666666666,0.00094835429844019,-0.009858185378587256,84.6777583751701,-0.0010497509899489996,-0.001706125297278553,-0.00291898319778382
0.27,0.0023926819638447148,0.004019644692765448,84.72787815469417,-0.0008253864911752629,0.0005337573866005309,0.0005861558700666168
0.2733333333333334,0.01489174033499408,-0.0005261185623866974,84.77126270485627,0.000560229199014585,0.002972251696321089,-0.001668482626695462
0.27666666666666667,-0.005017128979722214,-0.0008910807127533486,84.82633771725791,-0.0024718128475664015,-0.00287160900186259,0.0011807192601864264
0.28,0.0009965501204515662,-0.0018182380919355339,84.8773949556119,0.0002464553366064522,8.398737928179807e-05,-0.001039964639513163
0.2833333333333333,0.005391667493262747,0.005745837152133634,84.93002636085738,0.000712656539162162,-0.002738695640785982,0.0021296444477373064
0.2866666666666667,-0.003596128112536878,-0.001411100149767348,84.97038505866563,-0.002735870484895836,0.0022601769381465054,0.002665978299681428
0.29,-0.006110672193529565,-0.004325273898467258,85.02950691080405,0.0004613490054644474,-0.00046546535685845503,-9.030411579510622e-05
0.29333333333333333,0.000910311379465832,0.0018109780440545545,85.07593827779284,0.00014555266598079736,-0.0001890687645143057,0.003205116687532427
0.2966666666666667,0.0053641972263990005,0.010408079283565609,85.12588144651679,-0.0006937362345240695,-0.001193925489372707,-0.00025206281137795636
0.3,-0.0006941889424086925,-0.00435129349232108,85.16673883877148,-0.0010942393446884437,0.0009263380654678386,-0.001649337791422871
0.30333333333333334,0.0018452475352083015,0.007997435725792758,85.2265463033427,-0.002523165938837721,0.0006906860243480425,-0.0020787571904247364
0.3066666666666667,-0.008176825885081389,-0.009030951022345773,85.27883603719584,0.0016403316353777871,0.0020515522469904215,-0.0004005150351503102
0.31,-0.003939452301613517,-0.010085868088344755,85.31851879698684,0.0022032556229547263,-0.0016064601630614293,0.0024004785759706025
0.31333333333333335,-0.0046265344730097545,-0.003034930380592708,85.37467140687,-0.0008430309761419699,0.00210329238381044,0.000986475570388992
0.3166666666666667,0.004235771576017306,-0.000682297736454839,85.41944348227763,-0.002011004818243887,0.0012078372335061133,0.0011186600579097623
0.32,0.003750719917303272,-0.004517508312044921,85.46897132455882,-0.0006645227819642183,-0.0003312874982731678,0.003443671168977542
0.32333333333333336,-0.0004887776444730475,-0.011036774237457206,85.52263843971495,-0.00105549487547329,0.0006269966001383829,-0.0011057763351981378
0.32666666666666666,0.009987091179656193,-0.0006086109690291465,85.56815632941888,-0.001400035827506038,0.00010543722485866687,-0.00021409955870647232
0.33,0.2638185819174555,0.15062645282180415,85.60534131919087,0.000286914598013506,-0.0023160732589937484,-0.0014054185915970433
0.33333333333333337,0.26027631085339553,0.15666965800776061,85.66166656289042,-0.0001929194679538129,-0.0032375421583563826,-0.0020114849075268905
0.33666666666666667,0.26085286485627684,0.1538937694527388,85.69940591279544,0.0007532624376569856,-0.005702665754571777,-0.0004532093485122053
0.34,0.267923752059577,0.15621469724070206,85.74988441383867,-0.0007383828409556234,-0.006416669952900721,0.002154256750295742
0.3433333333333334,0.2551552458918135,0.1429267065597003,85.79606187077142,0.0002129822575649722,-0.008450902299324176,0.002615307162227218
0.3466666666666667,0.2667293973592799,0.1554677551416132,85.82749856750134,0.0017655766534622542,-0.01002987333264503,-0.0020549441879426293
0.35000000000000003,0.2814682698166924,0.15771653401745592,85.86699644034327,0.0006492722297723728,-0.005154022458183506,-0.0007508967827504397
0.35333333333333333,0.2768977329286839,0.17172308247202703,85.89601966105734,0.0015107305569895934,-0.011913211170283426,-0.00014842766123344172
0.3566666666666667,0.2659202262384744,0.15965387890783708,85.93709430062904,0.001671786981194896,-0.012136370875157178,-0.00199945643366055
0.36,0.2720062259665578,0.15642629118868392,85.9802996366117,0.0001673970778894576,-0.014082172695557746,0.0017458337090690771
0.36333333333333334,0.28884456924067503,0.16113709493280434,86.01357821267513,0.004294640565888045,-0.013957621402707968,0.0031174385845995508
0.3666666666666667,0.2789495702738485,0.16394019202988622,86.05311761879942,0.0006237007324971142,-0.015888396965641746,-0.0012546096073684798
0.37,0.2811541984715845,0.168045616827574,86.09389862069611,0.003981411916639085,-0.0207891519790029,-0.000803460826103942
0.37333333333333335,0.2803498832157081,0.16526662832432193,86.14291407717293,0.0014916649885074722,-0.020529243991220397,-0.00014199628128452492
0.3766666666666667,0.2700952064752481,0.16702164526881633,86.17340518753348,0.005996835879894715,-0.023634572708329183,0.0006611454003419111
0.38,0.27571248467448756,0.1672513629736649,86.2093895988416,0.0041279784970284315,-0.021213581274807693,0.0015664463814346837
0.38333333333333336,0.27982465785453553,0.17296779906526394,86.26728899000855,0.0072495340658079175,-0.023254154835022068,0.003460907791166856
0.3866666666666667,0.28842071212141857,0.17170525586497834,86.3162195895401,0.006158828639152188,-0.027872016030115687,-0.002202786552237814
0.39,0.28655213836537696,0.16869431314065625,86.36165269063085,0.0041109944743687905,-0.026245557384862617,-0.001992413364936598
0.39333333333333337,0.2722141754394455,0.16724898836017427,86.41070805867072,0.006144705472823928,-0.031122838741739583,0.0012481050454157686
0.39666666666666667,0.2821179815341736,0.16418342602731417,86.47685582290147,0.008565612686401488,-0.027736086133485608,-0.0016981760537157294
0.4,0.27722363841503117,0.1797570325084646,86.51540234056101,0.007124605885147281,-0.032307992157385175,0.0005760807944023286
0.4033333333333334,0.2743231742654719,0.16716245174727895,86.61747802838747,0.006134634393872399,-0.03164705070916615,-0.0008951287943471329
0.4066666666666667,0.2821026677675432,0.17326098239075222,86.72220638837197,0.009012470852144105,-0.03395190152027604,0.0017512049342133069
0.41000000000000003,0.27941387006362783,0.1736883561576145,86.84823998102766,0.010389685473957168,-0.03779036094726577,0.0013823963890100101
0.4133333333333334,0.26910895773804516,0.16595969196273494,86.96937060839271,0.0058819203477692185,-0.040991289757119624,0.0018687133039504563
0.4166666666666667,0.28074235915371926,0.1717131816983749,87.08477840533197,0.007307911243048462,-0.038892493467021685,0.0011649706821335864
0.42,0.2814883738509989,0.17298959655428217,87.1942233043178,0.010799846879018579,-0.04056688451312076,0.0010953597982946994
0.42333333333333334,0.2828091168133566,0.17219907507527893,87.2491284128608,0.008717168870565159,-0.04522976355074313,0.00029930866554369093
0.4266666666666667,0.27592675939677364,0.1667681842154282,87.27811741284205,0.011234899919996088,-0.047226641469089024,0.0006991313332055047
0.43,0.26964114839095316,0.17718149294542987,87.31977879630213,0.009430300204849001,-0.04786833389510087,-0.000963850874613725
0.43333333333333335,0.2627040659526615,0.1757369890025658,87.35857574657872,0.011481407713771645,-0.05126571018045802,-0.001566993521976452
0.4366666666666667,0.2748834318651855,0.16555447462262957,87.41344913122275,0.01038705023885915,-0.05180907350411192,-8.853935856861588e-05
0.44,0.2641099795742959,0.16596211719753365,87.44995414083908,0.010551736359216538,-0.04855572139653516,0.004181500464581599
0.44333333333333336,0.26490214714575766,0.16433820097063243,87.4958384194243,0.011935753782892411,-0.05271831947266956,-0.0005936153444910927
0.4466666666666667,0.25871023793435355,0.16960178905125528,87.55371961529406,0.011864044802440746,-0.055998892973777144,-0.0017875304941237912
0.45,0.25484351602549304,0.17451392132672824,87.61020352887519,0.010645703164995265,-0.05796231612586523,-0.00016034914267472572
0.45333333333333337,0.25641289998823846,0.17142695961852014,87.66586763694895,0.011631238362531842,-0.06060739788808782,-0.0008618134473525696
0.4566666666666667,0.25140020254088247,0.17015102452470235,87.71589690910697,0.00875402869735438,-0.06233765698454703,-0.0003630756419140758
0.46,0.24742820091758527,0.167619535151437,87.77887358039604,0.01152459230493335,-0.06443734921214034,-0.00044435700789557844
0.4633333333333334,0.24963900061679958,0.1739703662257929,87.82400465269454,0.01605439260343648,-0.06265753319485902,-0.0027625514101135796
0.4666666666666667,0.24720773117293507,0.15934356585251075,87.86462365492929,0.011432142151937965,-0.06465483745624749,-0.0002598546329822922
0.47000000000000003,0.23214401408914248,0.16369728276819678,87.89253629640066,0.013717700519705809,-0.06541349618719407,-0.001351256901945734
0.4733333333333334,0.2331283305976788,0.16930863916689554,87.93472619863849,0.01493333394235364,-0.06724442097296546,0.0024066997167221773
0.4766666666666667,0.22363090098251032,0.1621236652184914,87.96489407141888,0.014726197094348704,-0.06945014710420637,0.000593670732720966
0.48,0.21700538872636982,0.1629972552753893,87.99097221612864,0.014488508354983467,-0.07153517911377003,-0.0031576590915636553
0.48333333333333334,0.2155754594365634,0.15463282685367796,87.9787495766866,0.012195553258241145,-0.07293360769002809,0.0019676496069492458
0.4866666666666667,0.2053366977234933,0.16115741476258857,87.95823816753294,0.01297674528159069,-0.07403538979133004,0.0008399359283228966
0.49,0.21354214108589842,0.15705517766195667,87.94250195496842,0.013214372322902516,-0.07553528957024191,-0.0020386549156889353
0.49333333333333335,0.20302948144264396,0.14919152171789868,87.91896301109108,0.013538936385785088,-0.0783385385913807,-0.0018065367103934917
0.4966666666666667,0.19544177451283926,0.15143158588861078,87.8819117710057,0.013974704260761386,-0.07828360614637002,-0.002707168668107612
0.5,0.18266597444600058,0.1522523013895912,87.86062402080677,0.01787712035144487,-0.08102534717183812,0.00017986806105131764
0.5033333333333334,0.1813082739340492,0.15600996440367593,87.93509769165038,0.018758506485543777,-0.08188030033720191,0.0004100280929308859
0.5066666666666667,0.16546011763365423,0.14718277873445512,87.99832438327758,0.015413620162320998,-0.08377487359391086,1.0293193945170744e-05
0.51,0.167705338077511,0.14340040222690334,88.06983951841708,0.018066767639388776,-0.08597353367587829,-0.0003919251230863715
0.5133333333333334,0.16548574763201815,0.14499871540423964,88.14007281509961,0.01922975942027217,-0.08483300360808851,0.0026189675331424194
0.5166666666666667,0.1526545930783779,0.13992241269881348,88.2267505813004,0.018152293543962705,-0.08604960542959281,0.0007769942879488585
0.52,0.14665465942491107,0.1368660821813155,88.30690010469984,0.01856189825870972,-0.09369405230658148,0.002609099691243953
0.5233333333333333,0.13412959203642771,0.13109445938324385,88.36844327972088,0.019830908889334368,-0.09363062958165586,-0.002337290934878552
0.5266666666666667,0.13820443057051976,0.12802758527182886,88.44389120233694,0.015177923306014588,-0.09465511993999479,-0.002195151538503194
0.53,0.12215185314007376,0.12303389940623127,88.51520133055136,0.017340895837750277,-0.09479351602637491,0.004176681001684454
0.5333333333333333,0.11772588451627909,0.12463782072276877,88.58187693142142,0.01690564987817326,-0.09909781046686128,0.0016126575819047423
0.5366666666666667,0.11939959270073897,0.12762718807755097,88.64247168354288,0.01935028953600748,-0.09855335049779924,0.0006798451949385244
0.54,0.08696024018607533,0.11528340012037586,88.7104507216772,0.020138176583843374,-0.09860136059883191,-0.002229121482871421
0.5433333333333333,0.09417846853776393,0.12291365855992666,88.78470992651665,0.02137401638257756,-0.10177156509326489,0.0012581588131764124
0.5466666666666667,0.08110492634722245,0.10580494652475916,88.87774867885531,0.019018933310374315,-0.100256637461575,0.0016483056726361728
0.55,0.07611876825520023,0.1172502243751829,88.95263199079062,0.01930233491930064,-0.10376658966959824,-0.0003049525742998686
0.5533333333333333,0.05819113391394423,0.1112027511374968,89.04525971404638,0.020769368299732124,-0.10276175579208982,-0.00033239603725960067
0.5566666666666668,0.05414929896685549,0.10087842479102811,89.12889286654837,0.020199927792079474,-0.10354088790790708,-0.00016413132934982834
0.56,0.04674926912972518,0.09460379374642569,89.20692521967987,0.02273971417449517,-0.10601133453660647,-0.0016668440980929396
0.5633333333333334,0.030855989830882356,0.08941081100538074,89.2637285560626,0.02258847569003088,-0.10680905958531824,-0.00013534735349921397
0.5666666666666667,0.017649407913765836,0.07864664377581641,89.34023777067586,0.021957685143935424,-0.1098193789519523,-0.0008165340475785601
0.5700000000000001,0.006532039892132346,0.07668805562655692,89.40708916902977,0.025164167506806705,-0.1111710900983516,0.0013120705370634456
0.5733333333333334,-0.0035347892327012922,0.07120501815863525,89.4770985598961,0.024896025565425063,-0.11104845192614088,0.0021229359114357305
0.5766666666666667,-0.005102416779217932,0.0754986397860823,89.52939688848443,0.020997047690091118,-0.11396304406928848,-0.00116233143176268
0.58,-0.026847952360254994,0.06940381685138955,89.59828876968416,0.022588502259130044,-0.11563609117878065,-0.0018084832854456151
0.5833333333333334,-0.0382900392733441,0.07424080087029575,89.66366839211489,0.023347041927272924,-0.11552672783549063,0.00019813018263624275
0.5866666666666667,-0.04420628406031564,0.056723105525053094,89.71648988170557,0.02067723713511877,-0.11907771303566597,0.002062929999468688
0.59,-0.06435338039198196,0.059662195565560114,89.78080749992863,0.022777839463752978,-0.11616509579882447,0.0014679361029642205
0.5933333333333334,-0.07158145899255373,0.054985947108328256,89.83114944291678,0.02056223253197335,-0.11829116170648972,-0.0011461510053687588
0.5966666666666667,-0.08913325268103746,0.04484136490907873,89.88289256667477,0.022674887521027726,-0.12164154469500721,0.0014305140334153167
0.6,-0.11614924388905372,0.03680193530422982,89.9320698569382,0.022375976206823425,-0.11832720950483291,6.832047020870911e-06
0.6033333333333334,-0.11507739450227264,0.034062047469663355,89.98050694265648,0.02148398973114434,-0.1221992670542254,-0.002610939524529908
0.6066666666666667,-0.128284400650952,0.026672204468043255,90.02168836810885,0.02641825410810925,-0.12045525854786457,-0.0016821754516662373
0.61,-0.14654943254173705,0.032094623918414104,90.08281468855695,0.02113879729100446,-0.12169008423084036,-0.0009490791742163016
0.6133333333333334,-0.16390428775132154,0.016203356591692464,90.13043098385916,0.024755651544271104,-0.12361346249291859,-0.0021630386427866815
0.6166666666666667,-0.17382441769171822,0.01597711740865964,90.16854231435087,0.023196530270057664,-0.1275436900348315,0.0011060542706289368
0.62,-0.19593534319477326,0.005276084702835505,90.22549961622316,0.023218936252232893,-0.12441702832481732,0.0004420924161762762
0.6233333333333334,-0.20225043380418398,0.004404436500874076,90.27859774406627,0.023458718310468467,-0.12630608839508622,-0.000375413358456916
0.6266666666666667,-0.21765417566637102,-0.0076309504714612356,90.33878194105249,0.02324547242453243,-0.1266411615607075,9.555610687815176e-05
0.63,-0.23586054269380202,-0.009149128757259983,90.41153499562867,0.024338121440098493,-0.12648504821815884,-0.001950381804234598
0.6333333333333334,-0.2509863352756994,-0.025176436694123464,90.46393495155465,0.02367713386817477,-0.12707259699773352,-0.0051255937525154244
0.6366666666666667,-0.2735721678776731,-0.02085428485343733,90.52891843389958,0.02604962698367531,-0.13059744581545019,0.0001219777345369885
0.64,-0.29242855924858974,-0.030154243133745613,90.59103501415892,0.02626670828400815,-0.12897745904060262,-0.003081559910678881
0.6433333333333334,-0.2979067152678898,-0.03860579733054051,90.67938048839333,0.0212566081410584,-0.129422870539213,-0.0016731127660533018
0.6466666666666667,-0.3095389646192926,-0.036157504511132504,90.76829230798144,0.02386114412769825,-0.13127339355614454,0.0015671694110399033
0.65,-0.3341053911592919,-0.054463340391810444,90.83686585295388,0.02499950267322855,-0.12628938899304304,3.8737176690841996e-05
0.6533333333333333,-0.350331879099961,-0.06036181243766807,90.94184363578594,0.02485099076555993,-0.1285140585784947,-0.001679615759518751
0.6566666666666667,-0.3667411772775068,-0.059189154417534987,91.02036683156344,0.029090815724435306,-0.13229068742171882,-0.0006401211908673222
0.66,-0.37884226582760006,-0.0762817539832814,91.11934952523892,0.02841339957483644,-0.1263235543672558,-0.005839084153686679
0.6633333333333333,-0.40136627123664215,-0.07842144332202292,91.2073793174968,0.0262057025189301,-0.12931210598409715,0.0006140402429690116
0.6666666666666667,-0.4174276567014227,-0.07804795653831369,91.31299568375299,0.02553058025296874,-0.12982971943869526,0.0015556281026646158
0.67,-0.42183634782591783,-0.09625445542789744,91.39587650873912,0.0276741234496838,-0.13128933084386318,-0.0011532396605246442
0.6733333333333333,-0.4565730511906433,-0.10185098994273412,91.48957384712168,0.025758815344353283,-0.13298439049720243,0.0006819338487665552
0.6766666666666667,-0.4741577297803387,-0.09775587647982871,91.5921952804864,0.025058278985413275,-0.1309513253351387,1.8925324857367825e-05
0.68,-0.48879143215874205,-0.11472207341901536,91.68948861740624,0.02285936892195133,-0.12762438794948563,-5.755385303764962e-05
0.6833333333333333,-0.5019067447972094,-0.12019954285153274,91.78777430790511,0.02705939935866515,-0.13052340339558052,-0.0004594822066901613
0.6866666666666668,-0.5186718830514255,-0.12452046104394351,91.91590312643038,0.025169699721529496,-0.1313834254982401,-0.0040036552446841905
0.6900000000000001,-0.5513248662558871,-0.13421449854990672,92.02625568651607,0.023394714162131312,-0.1295644165988657,-0.0009983303697860646
0.6933333333333334,-0.5636052670487343,-0.1329478364556463,92.13308924840891,0.02560317357170758,-0.13283409969183838,-0.0005330201889886423
0.6966666666666667,-0.5705832600557809,-0.15123285704589928,92.25306257898357,0.023928117132275165,-0.13291293821702985,-0.0018149603056091131
0.7000000000000001,-0.6011207371424342,-0.1576682888881027,92.36306616035964,0.02642874075640723,-0.12996622830593033,-0.0024171907410930177
0.7033333333333334,-0.6214302464507573,-0.1698868944187629,92.4834448686607,0.021597121714154503,-0.12683762400548895,-0.0008644353659929491
0.7066666666666667,-0.6311673862382083,-0.1720289968522044,92.5941485272114,0.023981309635491613,-0.12878072055322212,-0.0010942262757274604
0.71,-0.6497275724631713,-0.18122380728360182,92.73286286995464,0.02592819052194567,-0.12672874597979616,-0.0007493253600925116
0.7133333333333334,-0.6673092167445172,-0.18899674089975999,92.84495201449627,0.02439870401919464,-0.12572563774137271,0.0004390729953559037
0.7166666666666667,-0.6911532034859741,-0.1917615532635552,92.97306606421023,0.024030816222777144,-0.12733113435013818,0.001691476908235876
0.72,-0.7131269593689298,-0.2059990295819186,93.09116808803572,0.022863481350767517,-0.12904193039915798,0.001145951773147182
0.7233333333333334,-0.7308689873151843,-0.21863878663666458,93.2237357933333,0.022093727418125268,-0.1254170427990846,-0.0008559062712326557
0.7266666666666667,-0.7496872972494757,-0.21506701980517523,93.35852527316662,0.022100695903657024,-0.12564716134633455,0.0010975233351160445
0.73,-0.7661918262024697,-0.22804066107031293,93.4933043131522,0.022499431320443897,-0.12339511625934906,-0.00020866153356382988
0.7333333333333334,-0.7850479038524654,-0.23948631040600024,93.62967306434973,0.025312030742187342,-0.12626968397289057,-0.0037730624353972007
0.7366666666666667,-0.8030232879639946,-0.23576144177212985,93.75619066124044,0.02279124367590328,-0.12147050590484784,0.0008022082365318079
0.74,-0.8163108004918591,-0.2480283415609279,93.8904492278212,0.0236889322046016,-0.11855498904145657,0.0019099957142474987
0.7433333333333334,-0.8390111260698605,-0.2583675160492246,94.02800389920448,0.022107255800711188,-0.11778923190430185,0.0009413268074655808
0.7466666666666667,-0.8620757079633126,-0.2668666413575876,94.16290082134331,0.02254057387380667,-0.1168325428194846,-0.0009342956591644367
0.75,-0.8715685455215071,-0.2630086354565085,94.30439052428252,0.01918092030523816,-0.11581087444144421,-0.00027129617000466136
0.7533333333333334,-0.8963700805923468,-0.27763331129251045,94.4477551746631,0.019726772073582664,-0.11416167479309956,0.002674239602036275
0.7566666666666667,-0.9226953215119663,-0.2874770611380774,94.5814959235308,0.020989003570765528,-0.11680491857084492,0.0009910869467656945
0.76,-0.9365207401363991,-0.2972765244069643,94.71902445772295,0.022117981700373605,-0.11470378762345657,0.0008274988081853692
0.7633333333333334,-0.9584720155212844,-0.3125299214025766,94.85500837456844,0.01888213872981631,-0.11219709060936157,-0.0007233879339286128
0.7666666666666667,-0.9794022744515617,-0.3115889492980349,94.99476343573387,0.01947194305566317,-0.10940921810116702,-0.0004826949517343867
0.77,-0.9860051947670079,-0.321623264782927,95.1403001971786,0.01770154316037552,-0.1046916119528096,0.0004723129312874084
0.7733333333333334,-0.9994043233455797,-0.3329879817731062,95.27124340246317,0.018855355066007252,-0.10799913034448172,-0.002720684170740912
0.7766666666666667,-1.0198871869538368,-0.3368270804360543,95.42612407733137,0.018744589494299028,-0.10609994567926796,-0.0017784969088241445
0.78,-1.0384120514000443,-0.34263022726279346,95.55308303519934,0.017558820045779747,-0.10416601574043557,0.0005964705648772802
0.7833333333333334,-1.0573846350536094,-0.3524541378561671,95.69044250769198,0.016195522018139927,-0.10368186089227745,0.0018197198615080318
0.7866666666666667,-1.0782073165063453,-0.35352087682790323,95.81174312726188,0.01910538827723579,-0.09820855355906738,-0.0013149939274216043
0.79,-1.0838846114235599,-0.36634032737317956,95.9509322096596,0.019170279583989553,-0.09696888453542588,-0.0006397679224564335
0.7933333333333333,-1.1049490132501743,-0.36640506297544695,96.08144979919659,0.017380342915425465,-0.0967701672652031,-0.0001845406027156662
0.7966666666666667,-1.123758640607589,-0.3757426777466418,96.21289320140536,0.019351606015957503,-0.09637062875948307,-0.0016108737067593065
0.8,-1.1433694364655955,-0.3741750387931069,96.34677434448756,0.01647838910072209,-0.08933992369043166,-0.0023370778389450223
0.8033333333333333,-1.1575938726110067,-0.38016515509161564,96.47471069161477,0.016191575061568923,-0.08961054600739612,0.0012686425153595822
0.8066666666666668,-1.16107290908296,-0.3996609580186703,96.59236427416343,0.015865543990080742,-0.08735823264705919,-0.0017162194034289868
0.81,-1.1812369473367375,-0.40345535433665886,96.69427370735393,0.013703462390827696,-0.08748147315815699,-0.0011802797233700113
0.8133333333333334,-1.2047007223901707,-0.41078834621901567,96.80790674265666,0.011244338620564268,-0.08213855224259278,-0.001682511813149448
0.8166666666666668,-1.2067642708962358,-0.4235406312846243,96.9176250188008,0.012999156819816005,-0.0820036479670222,0.0034563198746719115
0.8200000000000001,-1.228722434923693,-0.4184533435433838,97.04233637275034,0.013290887625348967,-0.07826246540447791,-0.0003809635183763411
0.8233333333333334,-1.2436820618850397,-0.420201399896011,97.14405526369838,0.01103775088496881,-0.07528819919991199,0.0012279638217955664
0.8266666666666668,-1.2497171607713728,-0.4264623007274109,97.23513624926392,0.013712354610401503,-0.07313556367921692,0.0018150343160723515
0.8300000000000001,-1.2646080366065555,-0.4300272775348823,97.32656105023646,0.013588345255321512,-0.07097185208427127,-0.0007291352943721536
0.8333333333333334,-1.2833610458925153,-0.43593654366390927,97.4227334050639,0.010270495416882373,-0.06305137090234196,-0.0003757239658322901
0.8366666666666667,-1.2820989955869364,-0.44221987786303657,97.52067554409244,0.0105014945707197,-0.06521225990935588,-7.100645273507324e-05
0.84,-1.2976851613013491,-0.4465310588545622,97.61632959904078,0.012072594685036953,-0.06315252711205652,0.0015879915523177878
0.8433333333333334,-1.3200149550375246,-0.45173407360764783,97.69787169150821,0.009311186248711599,-0.05735917004377698,-0.001056594287753692
0.8466666666666667,-1.327418314758738,-0.4482023725477726,97.78127962725908,0.007949954298945072,-0.05995036304641502,0.0009820953331041208
0.85,-1.3329008476179922,-0.4574428715563696,97.87316007337473,0.007565913070850728,-0.05736371236261366,0.0029871328507786636
0.8533333333333334,-1.350232614726222,-0.45356301062293314,97.94583134338637,0.008027848210325702,-0.05350846033272594,0.0003066097581353829
0.8566666666666667,-1.3577821873051164,-0.46541366843219306,98.03114928615142,0.010139302992536488,-0.04825530500101123,3.961658069191799e-05
0.86,-1.3781159919554444,-0.4709055783745057,98.10530302790403,0.006626194721907625,-0.048081779177689646,-0.0009710081844766981
0.8633333333333334,-1.3861310480209574,-0.46754296646854787,98.19117172971028,0.003933860853075898,-0.04447576612191288,0.0007823655023279993
0.8666666666666667,-1.381364534764554,-0.47681943441100366,98.25958576625135,0.006696327183296063,-0.04353607907069977,-0.001511806952496816
0.87,-1.387055296696879,-0.477157446662336,98.34062345036567,0.005662324765304751,-0.03965467078850398,0.0028048940595384896
0.8733333333333334,-1.4077962592844453,-0.48101220403910583,98.40975694742001,0.003567878333196426,-0.03618702857501783,-0.002768687670620394
0.8766666666666667,-1.4054977090983491,-0.485473318107732,98.48229535247982,0.004620107468394816,-0.035506277393609356,-0.0016974015822007193
0.88,-1.4116699826991879,-0.48445237662063,98.54767456726897,0.002954310788897124,-0.028700465528600273,0.0008269248948458137
0.8833333333333334,-1.4103984090393138,-0.4823815035759315,98.61433041200982,0.002450254042242221,-0.028327348273985264,-0.0019088318633226516
0.8866666666666667,-1.4230251828950695,-0.4741544327995683,98.69588048065778,0.003335250315175776,-0.026217686140375403,-0.001100524571425253
0.89,-1.4151196126843149,-0.4846561601585085,98.7679341115237,0.00686723461700624,-0.024853307191277478,5.898014795481853e-05
0.8933333333333334,-1.4266564087654883,-0.4846800340000759,98.84943061452248,0.004073136942918784,-0.01964280159651569,-0.0008735558725685253
0.8966666666666667,-1.4229542029949667,-0.4807664134425529,98.92044239994036,-0.0005632245939964794,-0.02010794509160746,-0.002137219251438136
0.9,-1.4349999244837963,-0.487681570801957,98.98676166139315,-0.00160372782765939,-0.01512280728575694,0.002261883027849407
0.9033333333333334,-1.4341323715223504,-0.4778510970378915,99.07083859374113,-0.0001885582081162098,-0.014232855045851879,-0.0003486536881959813
0.9066666666666667,-1.4444396296932478,-0.4897056318695819,99.15446781321465,0.001277317133226028,-0.0051337278373926485,0.0023776695680360095
0.91,-1.431623910982626,-0.48114033290155894,99.22705552809575,-0.0027193403185333206,-0.005779609029837255,0.0013792947244657293
0.9133333333333334,-1.4266832685229773,-0.4770723280151811,99.29676131001396,0.0011333711365759294,-0.002949317273313095,-0.001941763190571589
0.9166666666666667,-1.4415213787024215,-0.4706919482329177,99.373792225939,-2.5768448825744163e-05,-0.0018868808554014034,0.0015387515535213012
0.92,-1.4340683173896083,-0.47161348056055397,99.44541308411699,-0.004218473936819509,0.0038670843076930306,0.0038062482204036124
0.9233333333333333,-1.4246078565668963,-0.4700384309981724,99.52926218692059,-0.005116146860641605,0.004801839560694335,0.0009140383154831216
0.9266666666666667,-1.4281422101120378,-0.474066513775432,99.59965974303829,-0.00464206726003339,0.007795918286327457,0.0009274324023505435
0.93,-1.4288219923055248,-0.4696293064748799,99.67111425002906,-0.011346162602709193,0.009708278794156203,-0.0004277717443393156
0.9333333333333333,-1.4228944515126232,-0.45931069666101715,99.72646748017151,-0.005075182554771719,0.011354758406293306,-0.0015434177471560255
0.9366666666666668,-1.4163794659154205,-0.4629474392684714,99.80462929999469,-0.0054238628632584125,0.014968537571313001,0.0005178352541083072
0.9400000000000001,-1.4133928304770385,-0.46277263872306923,99.88600284080432,-0.007841986591534848,0.019373149084017893,-0.0015627328382713127
0.9433333333333334,-1.4013938535301793,-0.45411222067306406,99.94262456678834,-0.008286775273214543,0.01998541661388169,-0.0014115531528451945
0.9466666666666668,-1.4008823611557437,-0.4476192275941266,100.00468077014536,-0.006793308873942578,0.022409796581232655,0.001321774188927368
0.9500000000000001,-1.3889973604672148,-0.446240027191567,100.06606399150931,-0.005306489529963435,0.024497960333714704,0.001801222531514089
0.9533333333333334,-1.3784635910955536,-0.43252463073488556,100.1251531964685,-0.009090742419255804,0.028558228884455004,-0.0021177130805335835
0.9566666666666668,-1.3699405481121203,-0.43159596377757814,100.18855943511743,-0.009582990241348038,0.03106026585773786,0.0007495604843272803
0.96,-1.3661201780589247,-0.42139795407292197,100.25225418236231,-0.007416789375792257,0.03198214113382165,0.0010228985027163737
0.9633333333333334,-1.3661484625944786,-0.42066155293853363,100.29619472889989,-0.011023479636109522,0.035759159545971704,-0.0014925946069722135
0.9666666666666667,-1.3423860398256329,-0.4256480541436401,100.35244077647322,-0.01538015247049982,0.03683208158334961,0.0009962092998059015
0.97,-1.3257069375399746,-0.4055880623930636,100.39607188651587,-0.013685312538057378,0.03960010883241749,-0.0006441979953783054
0.9733333333333334,-1.324502469857004,-0.3990517564059113,100.43783821526445,-0.011308881120276988,0.04037921101565349,-0.0028330492718042313
0.9766666666666667,-1.2983815398495486,-0.4040539531433308,100.48212013054687,-0.01129892390943303,0.04137213272678634,-0.0013303638213321655
0.98,-1.2907371311283333,-0.3812630416785797,100.53179905613615,-0.013225361073167134,0.04372627869161971,0.0018045532980744679
0.9833333333333334,-1.2784553002863372,-0.37914498788712536,100.56802911144582,-0.010204097894943103,0.04844975232979556,0.0018753146683707792
0.9866666666666667,-1.266975343952484,-0.3766306083219919,100.58716667993698,-0.014659757847259086,0.04935495065332639,-0.0019012627806993328
0.99,-1.2454176397442727,-0.36481656715665683,100.61080029573104,-0.011213669791860843,0.0523424646477538,-0.0019581389645961654
0.9933333333333334,-1.2437834384659843,-0.36178298247245205,100.64313333392944,-0.01454273360986789,0.05187938362160114,0.0013795235693450148
0.9966666666666667,-1.2205434338389245,-0.3427939211630358,100.6711808642024,-0.013700624542891313,0.05173408577249872,-0.003098511562240205
1.0,-1.1934681977554344,-0.3385447018703876,100.69427171590564,-0.009636831698432977,0.05421487619087347,0.0018598889233889158
1.0033333333333334,-1.1820212441329203,-0.31972171676193345,100.7072407351424,-0.012936387854318367,0.0552691993276512,-0.00034005733036286396
1.0066666666666668,-1.1699386800319043,-0.31353108354539105,100.71775273580845,-0.016095940560416216,0.056337265081327456,0.001517832028472536
1.01,-1.1527221415612936,-0.3121889115554697,100.7388235271615,-0.015548959272136587,0.06115966565103713,-0.002078719510852157
1.0133333333333334,-1.1344789573007397,-0.29930123559139243,100.76308871062434,-0.01720875917003485,0.05920561796555222,-0.0006984335522417924
1.0166666666666668,-1.122955640385207,-0.2771254409362735,100.7765469893436,-0.011707517639640196,0.06382123749658264,-0.0007908040797852925
1.02,-1.0979270123069438,-0.2860067196067075,100.79126387973847,-0.010846058655792929,0.06509483937772571,-0.000882705275295337
1.0233333333333334,-1.0773310543770211,-0.27086038069173274,100.80007846181114,-0.01690069284860128,0.06500101655261793,0.0002660796949397931
1.0266666666666668,-1.0459779867405872,-0.2528366624276131,100.82094066507752,-0.015481507685874788,0.06466980331559032,6.88368200176954e-05
1.03,-1.0287502879714565,-0.24008688177463064,100.837471673936,-0.019804395978469197,0.06283155304973699,0.0003916548867698051
1.0333333333333334,-1.0117703709113504,-0.23761384429834817,100.84642929755998,-0.016606439629927947,0.067569136988032,0.000978672012282643
1.0366666666666666,-0.9960955817232205,-0.2265734299531669,100.86728636993095,-0.01505113500736051,0.0645630725123407,-0.0012698922514510092
1.04,-0.9784360484138203,-0.21576373345703098,100.86912287278052,-0.013449235922415943,0.06946506641917148,0.0022260215371674172
1.0433333333333334,-0.9452438704241489,-0.19527679870340137,100.89953848782581,-0.016136941678697746,0.06706444331173667,-0.0010501671107413842
1.0466666666666666,-0.9302147694676451,-0.17506948519867263,100.91743053140966,-0.01558252865826075,0.06761439925240403,-0.0017119853506353006
1.05,-0.9176159544818516,-0.18176891664703382,100.94205964597965,-0.016131597420915845,0.0692590128984613,-9.045370812923477e-05
1.0533333333333335,-0.8781452497309421,-0.16147560181979675,100.97069460322092,-0.013932874721784384,0.06744609827563151,0.000868075336331479
1.0566666666666666,-0.8676953072619594,-0.14953187272095125,100.99010742120353,-0.016552856127919992,0.06964229506184755,-0.001955412271047654
1.06,-0.8459621366725774,-0.13258801803525783,101.01788116819203,-0.015728873060867437,0.0709315315499305,0.004020192124418721
1.0633333333333335,-0.8174545172586085,-0.12409415919625456,101.04717375577891,-0.01730351951628134,0.06838913033030357,0.0021522506498002887
1.0666666666666667,-0.7932275162801556,-0.1229301588514268,101.07834317530758,-0.014568789635276087,0.06891181484618986,-0.0008599441766878893
1.07,-0.7679238201170195,-0.10643610647788983,101.10395159513689,-0.015198273507650859,0.06980258389530686,-0.0031524782239076114
1.0733333333333335,-0.7524398549869153,-0.09071356301828291,101.15952501701652,-0.01790963547729677,0.0659911401571221,0.00034359208356880426
1.0766666666666667,-0.7330789886308633,-0.08185171246138857,101.19412381373081,-0.016738940800985508,0.06722602545730172,-0.001339498982646035
1.08,-0.6992923299685994,-0.06450836545474861,101.22091708839,-0.01447461780790498,0.06695830195279753,-0.00022910860714837463
1.0833333333333335,-0.6812473041571714,-0.06020803677096544,101.26463903918085,-0.012302631517505236,0.0656900611382256,0.0007096986303159153
1.0866666666666667,-0.6597471503269721,-0.04952853957768582,101.30466374958742,-0.014175271180771042,0.06415410293674345,0.0001490764837318963
1.09,-0.6270809404331787,-0.038095198250852516,101.34882098800841,-0.015470277052156166,0.0642861312256561,0.003709926963404053
1.0933333333333335,-0.6045397131644127,-0.01868199092760628,101.38591241312251,-0.015703530484198536,0.0654870216589382,-0.0001409158637108149
1.0966666666666667,-0.5846708131916163,-0.025456983011734376,101.42067255796468,-0.014300584891355548,0.060942405027473265,8.253275063271465e-06
1.1,-0.5734497599288539,-0.006277175260702351,101.47117397651948,-0.015337529228614552,0.06256538784280909,-0.0027696397630912243
1.1033333333333335,-0.5410329733619081,0.013726683539811248,101.50705573343346,-0.010678420567280465,0.05876569972013576,0.0005309191911211654
1.1066666666666667,-0.5317018883779445,0.013191155901577784,101.52562581763435,-0.013532878691821742,0.05771324039452658,-0.0028428324434660117
1.11,-0.48976422562412486,0.038419103202511545,101.57309969025029,-0.014467219781677691,0.05697889455383191,0.0008552701093529001
1.1133333333333335,-0.48228538997370984,0.045369218215671234,101.610914014997,-0.013272987924954693,0.05815513469419051,-0.0015050756092506348
1.1166666666666667,-0.46648071661894597,0.0562300688820961,101.63038266932553,-0.010788452414378567,0.05255452113986173,-0.0017759717055298705
1.12,-0.4479093579212807,0.05753802747454394,101.6729252104338,-0.014038045136019174,0.052512976065066864,0.0006031496041578435
1.1233333333333333,-0.4188730878896268,0.06656336639175166,101.7137126007945,-0.014114010854876057,0.049751764544817466,-0.000793627939058331
1.1266666666666667,-0.39351036895247377,0.07172722619996806,101.72850580869415,-0.010955177005391618,0.04609378237001129,-0.0001377268489646914
1.1300000000000001,-0.3887776430526707,0.0871141754838595,101.75401639405351,-0.01424514790325914,0.04519489436536266,0.00048286485613607366
1.1333333333333333,-0.3686982749233716,0.08710253418541752,101.7914569913953,-0.011385565247601589,0.04270385334831458,-0.0034423069032319085
1.1366666666666667,-0.3540620491050428,0.09750826604449103,101.81631387876378,-0.006714356473611812,0.04620413788839672,0.0008260260222098699
1.1400000000000001,-0.3342686881887948,0.10412486003680019,101.84420036059423,-0.01099883585704793,0.043611546300710034,-0.0009501119085416014
1.1433333333333333,-0.3255996074790585,0.12251423966823438,101.86553532320687,-0.008324014060960488,0.04049534390336057,-0.0018726015452819778
1.1466666666666667,-0.3107377057240578,0.11848414070140445,101.90161138031954,-0.005867298623697023,0.037127995968058186,0.00011945882913522645
1.1500000000000001,-0.2803059861403407,0.12540054479410284,101.91886201198605,-0.011690067003731581,0.03716604771088828,0.00042028682274986186
1.1533333333333333,-0.2807789833944785,0.13345738870476753,101.94676753577502,-0.0059182873289194944,0.03254036510910763,-0.0019353773080820664
1.1566666666666667,-0.27839825100786314,0.13631509143265133,101.9678594525734,-0.007965165451801964,0.029021933450057387,0.0005146637933192506
1.16,-0.2601607699005549,0.1321283346073412,102.0018615438672,-0.006982806741465895,0.02740542196279396,0.000406522360477267
1.1633333333333333,-0.2445515139970126,0.150859458440834,102.01194396638937,-0.0033001963889768607,0.026835404696053524,0.00052009349953678
1.1666666666666667,-0.2320994804974504,0.1569226746410951,102.05561071095381,-0.0038231062139494803,0.023148145196402025,0.0002596454327602616
1.17,-0.23312070596512802,0.15768340860041666,102.07648410256634,-0.00447014610407941,0.020435665181172232,0.0012724126664635132
1.1733333333333333,-0.21507173006793423,0.1641417110503342,102.10244546537656,-0.0053569803842047166,0.02004078335588193,-0.0006507397819984404
1.1766666666666667,-0.20207080475097722,0.1555081753677044,102.1210407543149,-0.005425995247338999,0.01594900224321266,0.0020189967489164123
1.18,-0.1945081012569101,0.17370471712263386,102.15386115783984,-0.001648903510735935,0.014611026899971645,0.001058610892168296
1.1833333333333333,-0.19183037981367784,0.1715440734336415,102.16972539228664,-0.0019415860137823918,0.00888425984803668,0.00044029713251039207
1.1866666666666668,-0.18000828060524046,0.17510766484083537,102.19907408207222,-0.0035028016028842463,0.00983700929597345,0.0018944106307386631
1.19,-0.18463977616562505,0.17749272613851547,102.22691813688445,-0.0037409861879162828,0.0028089525027667813,0.002846240779182716
1.1933333333333334,-0.18131007384021855,0.1758935305257706,102.26255463517336,-0.0015945621159775048,0.00293060312331556,0.00014325600627316604
1.1966666666666668,-0.18126637077355698,0.17085425236451177,102.2870965244988,0.0017409515232850103,0.0005533468443056031,0.00265973413769977
1.2,-0.17086469334404097,0.18345999441589905,102.31246955613986,0.0017895932096892325,-0.003674972750759572,-0.0003960617828583808
1.2033333333333334,-0.18006762299554213,0.16423318844437002,102.35522368130201,0.0021175139130973934,-0.006360075962384332,-0.00020367022807304743
1.2066666666666668,-0.17993455029082067,0.17063488045283498,102.36517552965441,0.001271896666413747,-0.008369418207460353,0.002127954449664279
1.21,-0.18561415138410753,0.1629889386454667,102.40798557270413,0.0006021800816990162,-0.006661485993850689,-0.0014255388405419627
1.2133333333333334,-0.17969722009079814,0.15687962031194588,102.43159715538683,-0.0011614714119810275,-0.012425463267958327,-0.0016340329598750116
1.2166666666666668,-0.18541728410670624,0.1603639807052658,102.46434581248286,0.0033091090707510814,-0.011807687556571331,0.00012581035286174505
1.22,-0.18933667627125284,0.16386889451796288,102.4893162667986,0.003000391105468401,-0.017464250259547332,0.0011074705529892494
1.2233333333333334,-0.20133873753376613,0.15714693333078184,102.51160871879914,0.0020979823689381517,-0.01658513418890605,0.0013506786450287033
1.2266666666666668,-0.20509809059238504,0.14983282052020244,102.53210594718668,0.005488022625299065,-0.02128983782313333,-0.0026663656379362034
1.23,-0.20720466625044132,0.149740163068634,102.56839087696618,0.0048771829583556525,-0.02657394533630841,0.005254186229308841
1.2333333333333334,-0.22671958856425173,0.13030910845485938,102.5929359459997,0.006171710802315768,-0.027741073785034043,-0.0034067683735952148
1.2366666666666668,-0.2222789401141183,0.1323037549012652,102.61813449396783,0.008045508016084542,-0.029017656278920757,0.0018743601359385918
1.24,-0.2406757917568768,0.12474283512564115,102.64286935515915,0.004873786394774727,-0.03158941716911772,-0.0004966278357414499
1.2433333333333334,-0.25813362976906373,0.12402768805663429,102.66431226506022,0.006042165857836255,-0.03089518169547965,0.0009268654927247498
1.2466666666666668,-0.2612738025387762,0.10996066224407336,102.69056012327133,0.007520652232920719,-0.03661651113792938,-0.0011296062317300317
1.25,-0.28076847100394625,0.10621958875214754,102.70255328253613,0.008006607208083272,-0.0374869739331778,-0.0006244830218699629
1.2533333333333334,-0.2910734196044926,0.09555084235109587,102.71856341749728,0.006106987205151304,-0.03986262324370449,-0.00035638231611993245
1.2566666666666668,-0.3044740159159235,0.08697977703938538,102.73958260874701,0.007385028294383082,-0.037560151522931726,-1.3698417024291393e-05
1.26,-0.3212749296699911,0.06956205528411875,102.76983010468227,0.006301672342395209,-0.04203665074440429,0.0012346207941323238
1.2633333333333334,-0.332043012299525,0.06312214425105947,102.78541333300396,0.008056389088716151,-0.04366224781681127,0.0005951809647089525
1.2666666666666668,-0.36300698585105434,0.056073465603621316,102.8000603252419,0.004288864918248324,-0.0492872165618699,0.0018974237809462106
1.27,-0.36797124689009525,0.046000461087953984,102.82346485536418,0.00742704499113588,-0.04857120076478454,-0.0010130765353825251
1.2733333333333334,-0.3923802490444789,0.03751309274624672,102.82945571511262,0.008218504915792678,-0.049816363321852006,0.0017758818168646183
1.2766666666666668,-0.41177771008795194,0.03361404395403556,102.85018823308694,0.011288853598993988,-0.04619020353454501,-0.001966182964846253
1.28,-0.4271267990782939,0.018899039428771663,102.86621865617276,0.009514155535495542,-0.05245860480195183,4.857180090613926e-05
1.2833333333333334,-0.44059733064764967,0.005903674750447084,102.88358812825163,0.008473704954344468,-0.053332736081377216,-0.001279231056937572
1.2866666666666668,-0.46751756041296616,-0.004324808865618747,102.90426117126525,0.011106889530119318,-0.0535694718732619,-0.0015574270794786248
1.29,-0.4934363282789695,-0.01718926546051052,102.90612593919185,0.009996059953911028,-0.056006404119018034,-0.000548817022284182
1.2933333333333334,-0.5166641249634162,-0.0240853903389061,102.93288598766978,0.008539938676674779,-0.059135700306052766,-0.0025649986530819234
1.2966666666666669,-0.5398242209194946,-0.050505314641099724,102.94963903484363,0.010029076821090626,-0.05473962576283636,-0.0028400767955713375
1.3,-0.5556665115187275,-0.04492487705521623,102.9768427507948,0.01099738043135184,-0.05716950813075039,0.0017229828656507675
1.3033333333333335,-0.5956891106777447,-0.06267380993291709,102.98868732346271,0.01032256572589598,-0.059852132153913225,-0.00042097716443763474
1.3066666666666666,-0.6010969780593325,-0.07044545855195306,103.0193086339468,0.006739633949261055,-0.0573768445240342,0.0005053668168131136
1.31,-0.6345106497539896,-0.0886050010222997,103.04301552322507,0.010219986664991203,-0.05747736965734526,0.0019366489065349218
1.3133333333333335,-0.6519737423907096,-0.1010652248135204,103.06670322943202,0.012617494679459287,-0.05794719708708288,0.002409601822037942
1.3166666666666667,-0.6765801398676341,-0.12415919292579364,103.08796942009789,0.013161887286202096,-0.05803251077640086,-0.000754935190657752
1.32,-0.694490428061287,-0.1341026730519468,103.11079922056614,0.01044759147271963,-0.05631483290007756,-0.0010611744417281998
1.3233333333333335,-0.7197619985609393,-0.13287858555060633,103.15687016067751,0.008585582113295426,-0.060352038977553556,-0.0008718749089161765
1.3266666666666667,-0.739694891819073,-0.14895142799707642,103.1762283035164,0.008321354962567262,-0.05768822558908977,0.0031523020958561737
1.33,-0.7713605355525144,-0.16237870551057956,103.20610144362561,0.012249998161640486,-0.058489931869537416,-0.0004806392472482106
1.3333333333333335,-0.800459182446147,-0.1883814955999714,103.23781510609201,0.011076655259806355,-0.05850994000683177,0.0011984093463457144
1.3366666666666667,-0.8183516015106146,-0.19401287704073447,103.2819343549555,0.008282136824448786,-0.05825469815364793,-0.0020918891958915217
1.34,-0.8401535876772324,-0.1996291589518201,103.31694637601258,0.011733157274100531,-0.05787671876545775,0.0001230048649923539
1.3433333333333335,-0.868723800545625,-0.21036534841547638,103.34382277372157,0.009546301681425246,-0.05839601273881811,0.00434541440741393
1.3466666666666667,-0.891480568393856,-0.22008149649143122,103.39203207822064,0.007685082265391935,-0.05527471457941093,0.0016091923023018276
1.35,-0.9040098026197866,-0.2350469645524549,103.43559662297281,0.006684476238278551,-0.05374547993650829,0.000960547914034236
1.3533333333333335,-0.9378083119829134,-0.24173540398854218,103.46343077231273,0.009962313883414314,-0.0567022853872337,-0.0008753532806030148
1.3566666666666667,-0.9570974907775652,-0.24956164635351555,103.50130081928731,0.009757488819663108,-0.0527048295378318,0.0015640302954277763
1.36,-0.9784345493972614,-0.27133159602248264,103.54114032050744,0.007535213508542604,-0.05103625539684488,-0.002404194052617142
1.3633333333333335,-0.9982536828382986,-0.2688011796068224,103.60251215801655,0.008517390063754498,-0.05021764939459137,0.002292567955663761
1.3666666666666667,-1.0178138300417243,-0.2824093426984907,103.63951612797909,0.006891941544359843,-0.049275824481099295,-0.002060574353014011
1.37,-1.0383075552357937,-0.3054180664887388,103.68667052598623,0.00815571119611243,-0.04963971167290791,-5.664802944836536e-06
1.3733333333333335,-1.0543430293700344,-0.3078076015517774,103.73794437484405,0.007409366967943223,-0.04356678884961741,0.0005425512225884331
1.3766666666666667,-1.0637288675900531,-0.3135095831300767,103.79331852733729,0.008749871637479019,-0.04229899765680405,-0.0026848534718556354
1.3800000000000001,-1.0858834128268573,-0.3196398235023185,103.83893731551969,0.009272832187629006,-0.04478760394003584,-0.0012318137584656223
1.3833333333333335,-1.1135483449500472,-0.3260461833183429,103.88397065360138,0.00699857491820593,-0.04038986249150511,0.0009251391321445947
1.3866666666666667,-1.1182561131525939,-0.34083238103818025,103.94839265648396,0.008636541613492062,-0.03839310932757471,0.0024791802107952798
1.3900000000000001,-1.1303737052505545,-0.340682395645472,103.99903195273527,0.004306013772455916,-0.03865723864598746,-0.0018328654684858856
1.3933333333333333,-1.1505272707259016,-0.34511039457601206,104.06684864375406,0.005227190057823389,-0.03413487783874859,0.0017233048002225791
1.3966666666666667,-1.1664523949643937,-0.35185008930267087,104.12971284604092,0.001537391046609667,-0.033971056338095225,-0.0014673429522825587
1.4000000000000001,-1.1766877821429973,-0.3615603188922809,104.18089211372177,0.00419066514405716,-0.030803036244359643,-0.00034032755872196666
1.4033333333333333,-1.1896988645502478,-0.3556079496645478,104.25374904078275,0.004509220153286113,-0.03016062262405529,-0.00188784335756672
1.4066666666666667,-1.1934865930570286,-0.3568439099175105,104.32385155748278,0.005251752819341995,-0.029127806108358478,-0.0008945137693218733
1.41,-1.1962620712731737,-0.35488676290164156,104.39247138151578,0.0040040019224699235,-0.022055392181991557,0.0004870813795029252
1.4133333333333333,-1.2133797554699355,-0.3723130533751491,104.47263203452043,0.0014814854655931114,-0.023563682510656585,-0.0015401635304672862
1.4166666666666667,-1.2092748664194817,-0.37048546902849394,104.55420941051348,0.0009900749371025922,-0.023234500889199004,-0.0022216844429494825
1.42,-1.2130349182722764,-0.3718181460584624,104.62216572339787,0.0007598836079687036,-0.021512329576098332,0.00014853763870034204
1.4233333333333333,-1.2282354615699256,-0.3696802743899851,104.66832479983557,7.378199149425842e-07,-0.020787565066343223,-0.0006323587186432816
1.4266666666666667,-1.2263737034314466,-0.3729843883037326,104.72820765849185,0.0020322620034628836,-0.015913648660364717,-0.0008713543047246767
1.43,-1.2431938497386368,-0.3760394191477271,104.77679661977064,0.000746326607371613,-0.012721054554165568,0.002323146210351968
1.4333333333333333,-1.228347629712463,-0.3629959275710964,104.83141199110507,-0.0007372463490818285,-0.008653564839463777,0.001523116525352108
1.4366666666666668,-1.2314178090286223,-0.3776398723292627,104.8862309604104,0.0005320431370337178,-0.012765028150048551,-0.0017545022503337637
1.44,-1.2294170227636914,-0.37924856838646087,104.94010645112753,0.0016263571892001466,-0.006211527640197832,-0.0013017841268750552
1.4433333333333334,-1.2282564220521515,-0.36972552849642604,104.97477499287662,0.0008808855937667397,-0.0072854432911001275,0.0002297396254396811
1.4466666666666668,-1.2263395329576605,-0.37215092582914905,104.99473881829896,-0.001998813652850458,-0.0006293152712748959,0.0008669961011524188
1.45,-1.2201798936025683,-0.35834920097412365,105.01912265528682,0.0010715374388038084,-0.0010628351421937212,0.0009323933789254005
1.4533333333333334,-1.2111537719396583,-0.3459592436651356,105.04322472937709,-0.0030341466723914925,-0.000678796302567162,-0.0025759769770835983
1.4566666666666668,-1.2028546833743223,-0.34937022038837134,105.0633091646101,-0.0049991832589377705,0.0014059415904891957,-0.0021951755592208217
1.46,-1.1937119706154398,-0.34368476573860207,105.08369671704756,0.0002704577589878617,0.0037424494498296914,-0.0006481000315868336
1.4633333333333334,-1.1939099279732097,-0.34288502528153253,105.07393551677694,-0.0044176529670259,0.007799336159789923,0.0005141290047485869
1.4666666666666668,-1.181887805895336,-0.33375664643331987,105.06827667541278,-0.00030655597695555207,0.007147407219491861,0.0007422418942328265
1.47,-1.1568793039922265,-0.3107402386894836,105.0662841230887,-0.006925219887579265,0.00856106490967682,0.0004987024142537898
1.4733333333333334,-1.1570869425268764,-0.3162464958498524,105.06102354028762,-0.006285388600093729,0.008232969500008777,0.000373890638947863
1.4766666666666668,-1.137394565263718,-0.3064579514310479,105.03502323904566,-0.004760411365944335,0.010424269320252807,0.0002411771075529784
1.48,-1.1262926555448867,-0.298951285949134,105.02432130542503,-0.004687574439148943,0.013546579185364768,-0.0006860249728920061
1.4833333333333334,-1.1127580214964703,-0.2825417468929761,104.98533329822737,-0.005915198891741683,0.015734576072425215,-0.000515637693653774
1.4866666666666668,-1.0911531386990394,-0.2812079505996877,104.96522803294182,-0.00547979038345958,0.01558650705338183,0.001812603543177039
1.49,-1.0744287088230156,-0.2622499046773637,104.93166959503715,-0.005332597838811332,0.01615671485975139,-0.002656940760305364
1.4933333333333334,-1.0672947829586408,-0.2559767489565346,104.8954418875525,-0.004216905757368478,0.016841466422022968,0.000824069512362
1.4966666666666668,-1.0440538247133573,-0.24684871094997912,104.84777484419719,-0.0015223082628046366,0.018968247716843807,0.0017108291656209897
1.5,-1.0324343037555719,-0.24039562342365395,104.82589382512924,-0.005381168337208717,0.020580911249514163,-0.003851144387240095
1.5033333333333334,-1.0130120627314374,-0.22776859494284538,104.79639553446738,-0.005447105130055597,0.02005307364202399,0.001447648686295401
1.5066666666666668,-0.9953430001206375,-0.21954074144102026,104.78319374439627,-0.008013425855463316,0.021202483861164557,-0.0015487518861487725
1.51,-0.9781430863106738,-0.20320498681393184,104.76413338558122,-0.008670309949629288,0.02044560599077694,-0.00010569296123476159
1.5133333333333334,-0.9586926875976194,-0.19480219140654867,104.73747743656902,-0.009010517398881117,0.022824747008631827,0.0004691977920924678
1.5166666666666668,-0.9444888499481965,-0.17737288085421649,104.71498405907126,-0.007066047120147564,0.022855140029009544,0.0009215299549062833
1.52,-0.916465103837617,-0.16958488198249577,104.69986841592055,-0.009611640560123012,0.023296932214441745,-0.001535781111330482
1.5233333333333334,-0.9048631957621858,-0.15403981103620953,104.6853004476777,-0.008540154434222794,0.02381944984992944,-0.002086853723124041
1.5266666666666668,-0.8758675705967556,-0.14288138184795182,104.67512460504624,-0.004688091325412645,0.024409385229883146,0.0044009097357808075
1.53,-0.8560288082260638,-0.134275099948017,104.68131658859541,-0.008474071023205448,0.02457806111784007,0.0008186859071158167
1.5333333333333334,-0.8400313754331609,-0.12216994060381632,104.67115882567066,-0.007972544145834056,0.023635304487127595,0.0002536185017841979
1.5366666666666668,-0.8134980811722218,-0.10248748762385745,104.6672418276775,-0.009199039148429098,0.020317687819066333,0.0009523503855688565
1.54,-0.7961965279654164,-0.10227618542735327,104.673495174475,-0.0063252296518781625,0.021997846161884826,-0.004162634415606634
1.5433333333333334,-0.7710896216198547,-0.0900190318447899,104.66469141271712,-0.00774162070250757,0.022189193196153697,0.0006225554203399101
1.5466666666666669,-0.7500338380770729,-0.08146258010163374,104.66523365167708,-0.009446515270692053,0.02085478826026884,0.0011186810127485338
1.55,-0.7384089492532812,-0.07492199937999369,104.67105468039965,-0.00380650919851077,0.01964385721009757,0.0009870523485640318
1.5533333333333335,-0.7192316002048611,-0.06617996967527259,104.66442765499211,-0.00338951412237439,0.02020323906072893,0.0005032965634249251
1.5566666666666669,-0.7078253140938223,-0.05736307316904881,104.66197198065734,-0.004407363508145402,0.019064234919021556,-0.002005787500411326
1.56,-0.6819359638192948,-0.04436605238771883,104.65773630743323,-0.007302326406012925,0.01998802976967001,-0.0006033886215484428
1.5633333333333335,-0.6636812089072217,-0.02294912699366875,104.6636685750129,-0.0022467031238588907,0.015515351685524356,0.00047285106126568896
1.5666666666666669,-0.6462874858985884,-0.022533126963599905,104.63920023732089,-0.00340320034385298,0.016556375529250947,0.00023778392843677837
1.57,-0.6418745735926733,-0.012896434128731149,104.62474037357664,-0.0037052161850757077,0.015549521345193839,0.00014848590516333376
1.5733333333333335,-0.6121489020798953,-0.009380310328140459,104.60744886629706,-0.006685558287289551,0.014962185440336583,-9.320225870318803e-05
1.5766666666666667,-0.6043277336349062,-0.0028588421413103175,104.60092113964957,-0.0048689744574421726,0.013440923043678544,0.0018840217348377298
1.58,-0.5957036312516656,0.0012753340690413182,104.5862689896492,-0.003777128177727247,0.010722079491247143,-0.00155693120699394
1.5833333333333335,-0.5837008651831471,0.016108800506211978,104.56413985290571,-0.006520985905641638,0.01025752007385609,0.0026093069986009806
1.5866666666666667,-0.5725995203225659,0.009063714729988598,104.53457008315264,-0.0029278995292205076,0.010704472712585098,-6.908262741809635e-05
1.59,-0.5494885474587209,0.0157252415829115,104.50711400131603,-0.003923628474259227,0.011704990363184547,0.0017725687810788227
1.5933333333333335,-0.5490239482668566,0.02475708237782001,104.4717029178328,-0.0009948774897459833,0.008644631126238317,-0.0010108322224098513
1.5966666666666667,-0.5382367760959768,0.035889117548632665,104.43452791942315,-0.0023821673926001014,0.004782824100463787,0.0034408225345581044
1.6,-0.5333694105074057,0.03280742468596372,104.40086707186609,-0.0028006189897709084,0.0032171885119082946,0.0019178391078059464
1.6033333333333335,-0.5332533437738342,0.038870366509498135,104.3557564390448,0.0018917133898167593,0.005090279026315487,0.001060636789434117
1.6066666666666667,-0.5183708480647132,0.03684831606036612,104.30367196540749,0.0002362067727299023,0.0002917436278642926,-0.0021010736393708355
1.61,-0.5161544919840292,0.022690412848168764,104.23485933012451,-0.0022006989180159975,-0.0003781412955427936,0.00031077800261871714
1.6133333333333335,-0.5084952931773864,0.03166080566733553,104.19328161946417,-0.0003780243442663866,0.0006293551923497653,-0.00011407441126361528
1.6166666666666667,-0.5257794660805136,0.03877343357640291,104.12932850821753,-0.002647662271445207,-0.0007172366135569752,-0.0008973495124007323
1.62,-0.5146173667649694,0.03696851923795604,104.08410911989661,-0.0005136319599974288,-0.004203259678947642,0.0010370189421055203
1.6233333333333335,-0.5108892091022955,0.029478565449377773,104.03239969794465,-0.00010746035594666414,-0.002601144219711749,0.0014148578902621058
1.6266666666666667,-0.5190661751724939,0.03875240468511208,103.94938859640578,-0.0016147164109386475,-0.01158233864104707,0.0004876718932806835
1.6300000000000001,-0.5149617065022599,0.03321769291312474,103.88453504814869,-0.00026040871395359194,-0.00740007856074687,0.00022962404305132417
1.6333333333333335,-0.5184261106701539,0.023790094694379836,103.81972222756164,-0.0012991890773295374,-0.01149815019246147,1.2786036348663518e-05
1.6366666666666667,-0.5267882922539564,0.014728286799848767,103.75274143670498,0.0035435457500574714,-0.009387487459040897,0.0025858830511479333
1.6400000000000001,-0.5293010458301813,0.01933571403279068,103.68197551019647,0.0037244842492978516,-0.01480968432571061,0.000354523470035494
1.6433333333333335,-0.5278684191965072,0.014997594579770263,103.61092040823782,0.0016259037668567265,-0.014518352056379113,-0.0018670715734159403
1.6466666666666667,-0.5476048081002499,0.010478989786914628,103.55279480391383,0.004571890174616167,-0.01837986492973893,-0.0013408226716881085
1.6500000000000001,-0.5632313094952005,0.003398351629300307,103.49260244532046,-0.00029240855013794005,-0.018004484450420206,-0.0008603440674956273
1.6533333333333335,-0.5660926333349955,0.006342761256025225,103.42706905291335,0.0004488383160855046,-0.016904271448116702,-0.0011192195993469467
1.6566666666666667,-0.5663577145575169,-0.0004192672229548864,103.37397922217161,0.003200524697673893,-0.018535893300780364,-0.0020313540311382183
1.6600000000000001,-0.5855755362610966,-0.02077893976837975,103.2966958857476,0.0002777380192584499,-0.020306944342299987,-0.0004565821039264596
1.6633333333333333,-0.607936869343474,-0.010083395235012527,103.23713289507366,0.003158367733327904,-0.022620916398482592,-0.0009535525103282153
1.6666666666666667,-0.6077103636908814,-0.031188260934702082,103.17962614565731,0.0011467618055773442,-0.02066398031649215,-0.0007065851776572932
1.67,-0.6166393759339364,-0.031515631553074706,103.12891160363952,0.0028766560737150423,-0.023009385289051734,0.0012326990242974723
1.6733333333333333,-0.636820320924011,-0.04753965892894531,103.06401866817276,0.0020900599965197626,-0.023483733331278754,0.0018766997452617938
1.6766666666666667,-0.6577407427391895,-0.04816255389765273,103.00533194009238,0.003990214905660793,-0.02699943463126116,-0.0009451433454958177
1.68,-0.6649827669133985,-0.05831810675845686,102.95671383991288,0.0029317235750878287,-0.02329492079679849,0.0012664260415900714
1.6833333333333333,-0.6925284999528806,-0.07287792277655038,102.90068491393569,0.003806490120869424,-0.026856412713867843,0.0032768471314080835
1.6866666666666668,-0.7142317418185827,-0.08726203339421057,102.83753610466269,0.0014652637068942693,-0.030033066584179438,0.0013049427762498167
1.69,-0.7268590922756417,-0.0962549089615691,102.78595668571376,0.00039775443480994386,-0.025061094681439924,0.0034197552540561837
1.6933333333333334,-0.7270227797018812,-0.09740981126817246,102.73387236535903,0.003124360965439597,-0.027183247691564275,0.0001573949220292116
1.6966666666666668,-0.7464781192991036,-0.1124013465439043,102.67412154434544,0.00445593928440039,-0.027306064108185438,-0.0006897825095630815
1.7,-0.7703467611707018,-0.11875936368352592,102.61522135967084,0.006334060922986243,-0.026278750597544573,-0.0036325063232567545
1.7033333333333334,-0.7891200940819094,-0.11643829651465845,102.56969208692139,0.0031527997278551186,-0.026981654945239374,0.0005792475572061182
1.7066666666666668,-0.7974958143903451,-0.1338285681853607,102.50859517067973,0.003980846400699198,-0.026321721138481722,0.0002371394242795942
1.71,-0.8184585282055582,-0.14011061369308284,102.46330169875166,0.0068161723880941945,-0.02631837334369426,-0.0018403120972016844
1.7133333333333334,-0.8289499728567685,-0.1515006826790227,102.40134190412303,0.0025780886053603244,-0.02896308510030517,0.0011708295994789346
1.7166666666666668,-0.8573457491814777,-0.1586088698534027,102.35846933982909,0.006601571371439671,-0.028076240221215153,0.0010453473771981664
1.72,-0.8802762990001716,-0.16212626402724317,102.30119888625494,0.005483754918888802,-0.026035507077993725,-0.0030147887598906526
1.7233333333333334,-0.883186009052349,-0.17920294213839008,102.24012061009618,0.002673113707147954,-0.02754359107301857,0.000782105152636938
1.7266666666666668,-0.90265949217968,-0.1883936544462153,102.19087728212193,0.0016068696483076397,-0.026902674414659444,0.0015401117890901145
1.73,-0.9195892735164534,-0.20130940386926596,102.13879591628422,0.004402631579908974,-0.02304971881345016,-0.0009937371319970673
1.7333333333333334,-0.9299739169264772,-0.19282326968264657,102.08370301816264,0.006938327928612484,-0.02568156259063023,0.0025384004521126916
1.7366666666666668,-0.9530697223668448,-0.21414978546729432,102.03306689458637,0.0035363556768775134,-0.022923836346356287,-0.0001981568196564095
1.74,-0.9609942079843341,-0.20939464012352635,101.97212565509038,0.002269141407473015,-0.025621962727894684,0.0007691900120073151
1.7433333333333334,-0.9730247899873697,-0.21857155055567687,101.93960510654829,0.002342494316134011,-0.024475504963226282,0.0016294410972266238
1.7466666666666668,-0.9857061280360242,-0.23180065316458795,101.88907343459213,0.002777105797813678,-0.018380681742748803,0.002173334139198013
1.75,-0.9952457980102551,-0.23793089729160055,101.83348254078221,0.002299556366647725,-0.020453482796584904,-0.00011090220492614416
1.7533333333333334,-1.0050656119816161,-0.24111648232574262,101.79414839828,0.004636913568421766,-0.01933288556765333,0.0008072015923702431
1.7566666666666668,-1.0113088094712954,-0.2471103592678132,101.7536056341147,0.0032544601581645915,-0.019958790623152853,-0.000998983311109596
1.76,-1.028731762257356,-0.24893348413114458,101.70642882521801,0.004105229177275901,-0.016588644852798165,-0.00436763254283096
1.7633333333333334,-1.033483942188916,-0.24123583990563927,101.65526908850835,0.002919292648921042,-0.017927206143395102,-0.0005787434516846729
1.7666666666666668,-1.0438123842472034,-0.24678639720978282,101.60930089194412,0.001275504262503365,-0.018470866749953067,-0.00018087144975453373
1.77,-1.0474147111598995,-0.25180747578120566,101.5876458328752,0.001774428935847689,-0.018091390402117376,-0.0013952260127005473
1.7733333333333334,-1.0509564102084024,-0.25297487378960437,101.55017796789728,0.002429810064495997,-0.015143075775050103,0.0018576560297982876
1.7766666666666668,-1.0574927805856535,-0.2522693853354984,101.50757491261326,0.0027541698648124477,-0.010591104544469983,-0.0022001977752853894
1.78,-1.0576672987317246,-0.2603442341079021,101.46607647958427,0.0034162070614313037,-0.013246815855242193,0.0026711363546721096
1.7833333333333334,-1.062070322608515,-0.2580255731835129,101.43977416466961,0.0018948171118052597,-0.012791328972656134,-0.00021804506067683196
1.7866666666666668,-1.0728227545682334,-0.25401442096538274,101.40589450375172,-0.002094755423711598,-0.008613162328490388,0.002529557729375189
1.79,-1.0547589871878444,-0.25701012453195643,101.36704268671241,-0.0021342170288230385,-0.008213964567221196,0.0005654402854189286
1.7933333333333334,-1.0565708373256797,-0.2522525692564324,101.34499913251233,-0.0015495252589640875,-0.011338963508697146,0.0005597454560635897
1.7966666666666669,-1.0531115999640097,-0.25415114115586984,101.31138570066561,-0.0014636102075926993,-0.00753475577268807,0.0011486734073047576
1.8,-1.0605537320147005,-0.24301827598812778,101.2683378222142,-0.002559668889473646,-0.007307320580554642,0.0007179593292161975
1.8033333333333335,-1.0588735122894066,-0.2469410705505944,101.24353955139098,-0.002105250698083024,-0.004014119207777745,0.00010097374438024733
1.8066666666666669,-1.0438545039391895,-0.24749273043034464,101.19863835140806,0.001275573745267545,-0.0035105632249845765,-0.001681369017085336
1.81,-1.034670537117038,-0.2362167921166435,101.16733322269322,-0.003921568729991557,-0.005333069141416937,0.0004886777363388425
1.8133333333333335,-1.0312936046536385,-0.23564921437995803,101.12932638259204,-0.0014922164232228274,-0.00018979190300337208,0.0007592655471147506
1.8166666666666669,-1.0332302404763027,-0.22090621400642707,101.09372362460208,-0.0021863481366579916,-3.346747300607064e-05,-0.00026596391971325003
1.82,-1.0207626679768045,-0.22465783349250054,101.05293768186046,-0.0027734209019692844,0.0011624691771597029,0.001966735755725394
1.8233333333333335,-1.0121650877278647,-0.21587163621630573,101.00907781688102,-0.007050279369058251,2.950923878186065e-05,0.002386125252449311
1.8266666666666669,-1.013802780913501,-0.20629882147696657,100.95884521901938,-0.0027907448992494912,0.00032998949483702047,0.0004213016304792475
1.83,-0.9904553944083279,-0.21263628908467574,100.90151705740944,-0.00040665956793174435,-0.0010724202724949107,-0.00506325254711135
1.8333333333333335,-0.98613645097129,-0.19666869136609436,100.85044914279733,-0.003959614311680943,0.002772324587778864,-4.75540436566952e-05
1.836666666666667,-0.9752463802710754,-0.18694007146061456,100.79768101603004,-0.002207129555854208,0.0007900386729976917,0.002138533217873204
1.84,-0.9716382813935789,-0.19351896114862496,100.73958068625245,-0.0012311528191175044,0.004829497969641293,-0.0005690521468310985
1.8433333333333335,-0.953001703992897,-0.1731122861917054,100.66747819028001,-0.0021393136753232967,0.0051296669217267875,0.0018464355546958786
1.8466666666666667,-0.9373485965173609,-0.16331017467767686,100.59482934422651,0.0013208791765761904,0.0016906094940147543,-0.001204084152821569
1.85,-0.928172954178709,-0.16967593672362602,100.50904096050833,-0.0035807746846688512,0.00483041215937798,0.002280269203631389
1.8533333333333335,-0.9105652805886334,-0.15731848477687427,100.44154448407878,-0.0018910962801455418,0.0021875543953031804,-0.00033558520492053877
1.8566666666666667,-0.9069410970109867,-0.13562187138688342,100.35838060572563,-0.004212818925000479,0.0031060895275440235,-0.0009212910955764255
1.86,-0.8902400572989725,-0.14623261763733086,100.28611368106773,-0.005461234531577384,0.005354762284631221,-0.0032586332236366274
1.8633333333333335,-0.8827916471912866,-0.13935123361309523,100.1913632005398,-0.003531459446353336,0.0021864396465190988,0.003387481008566673
1.8666666666666667,-0.8665233008827868,-0.12194505509376274,100.07525861787275,-0.0021750520065966063,0.0030681725225279012,0.003212388399991076
1.87,-0.8520683885575893,-0.11459588249224217,100.00014746490729,-0.0045343969103806454,0.006585603530988403,-0.00017330174452951795
1.8733333333333335,-0.8325402335447737,-0.11530459425557531,99.89371221782685,-0.00403385671715171,0.0006978070974341948,0.00015947579719085105
1.8766666666666667,-0.8192039920901323,-0.09853157883174218,99.79361724788943,-0.000265034527270034,0.0018953417980419125,-0.0017272211990023072
1.8800000000000001,-0.818482078578524,-0.10137417286020424,99.69981216999318,-0.0029675493497262986,0.0032360022107964883,0.0025367826387590097
1.8833333333333335,-0.8055575412244024,-0.10361079276519668,99.58496637373534,-0.003266332044964456,0.0034417415444179473,-0.0016765619845298973
1.8866666666666667,-0.7968766033697068,-0.08929576561155667,99.47827657299192,2.289568700562924e-05,0.005532055996964855,-0.0012954638405842647
1.8900000000000001,-0.7932823232806969,-0.0764466364428693,99.36469021017537,-0.002953403210918428,0.00040807780635907756,-8.20766208180418e-06
1.8933333333333335,-0.7783290627426593,-0.07107719325226054,99.26855734500758,-0.0014066722110590798,-0.0003175150941013996,3.336333061363561e-05
1.8966666666666667,-0.7631275142022701,-0.07381136713376021,99.15549943263231,-0.0011714435072970807,-9.608398057430942e-05,-0.0012095627617101058
1.9000000000000001,-0.7725310787510961,-0.07149371867101376,99.05628973536314,-0.0030966774743166675,0.000802060100087421,0.002183409367847973
1.9033333333333335,-0.7647926348799491,-0.062309385442848544,98.92831193215386,-0.003491368915572027,0.0026464850689581747,-0.0017292636546471683
1.9066666666666667,-0.7495695746660997,-0.06259417046624116,98.8091009522151,0.0020571753889381296,-0.00210131498899034,0.0011206042184889943
1.9100000000000001,-0.7361489431979742,-0.06387995771235361,98.69767882964933,-0.001532517122920873,-0.0009174553459500359,-0.0008279617110064861
1.9133333333333336,-0.7426732142018865,-0.060550524019524724,98.582350182554,-0.0019996222018710116,-0.001703647951471602,0.0032363167717851297
1.9166666666666667,-0.7367480590686303,-0.06457770945522585,98.46392099731139,-2.941161690390027e-05,-0.004069106754051298,0.00027595259588190446
1.92,-0.7274847209739116,-0.05029304753597588,98.35127944070368,-0.0012811773482003077,-0.006316377411106619,0.0007839830155169611
1.9233333333333336,-0.7307862730583831,-0.05513823932581333,98.24566513268708,0.0007638096436108033,-0.003961285439549661,0.0015003732057522398
1.9266666666666667,-0.7231002329333657,-0.05391778219027104,98.1422537337808,0.000757112132345158,-0.0025693492337310266,0.0016493781670845497
1.93,-0.7293138873464081,-0.051971724988800184,98.03298506210619,0.0029568438622073465,-0.0062009272327720145,-0.0004286322372785295
1.9333333333333333,-0.726310232260186,-0.06353966345907658,97.91779903621033,0.0008777968400195385,-0.006909250782784481,-0.0039559008927297695
1.9366666666666668,-0.7266538435625497,-0.06103430897149631,97.80588897551897,-0.0003503932222357583,-0.005632222990611727,0.0011121376192631189
1.94,-0.7322213753814545,-0.05308848700915539,97.69907387335986,-0.0019605840027490653,-0.005073012218782645,-0.0013726387719025283
1.9433333333333334,-0.7292119487871626,-0.0566726792973023,97.59599486209194,-1.7685806554117335e-05,-0.005678144329728331,0.001004364322453475
1.9466666666666668,-0.7296172539069717,-0.0703885431474645,97.48118332555305,-0.0003232267393609804,-0.01160684836777689,-0.00023064356338049814
1.95,-0.748362307440813,-0.06532090755144887,97.37820960852922,-6.640887983970403e-05,-0.010170016034393489,0.0007824234295378968
1.9533333333333334,-0.7432919292656471,-0.07388308703590382,97.26116785099249,0.0002923892054454799,-0.012312492499909256,-0.0009063196978457731
1.9566666666666668,-0.746890998117365,-0.06725664343796772,97.1584613513107,-0.0003885946113534606,-0.0120872864047494,-0.00019351353183522818
1.96,-0.7582352325553221,-0.06650028227646171,97.05541610688265,0.002008211236497275,-0.011240365453616114,-9.609259736760525e-05
1.9633333333333334,-0.7604112528830361,-0.07759481630318009,96.93203763807075,0.0038275895482490505,-0.010717822348180578,0.0010387871519596345
1.9666666666666668,-0.7599923872978055,-0.0846056741418754,96.82457584824394,0.004024269366925144,-0.015136108780940415,-0.0017309697420983723
1.97,-0.7727688297088151,-0.0881080603584414,96.6965251216939,0.00027882670399838794,-0.013092207247517688,-0.00443202178969711
1.9733333333333334,-0.776245702135907,-0.08622898306818566,96.58648118752777,0.002987683413760785,-0.015419929213749708,3.1005127387131685e-05
1.9766666666666668,-0.7862672813126956,-0.09378693062673454,96.45352641071321,0.000411109737790679,-0.012359082687858654,0.0001670256646499793
1.98,-0.7969414675181595,-0.0951242873682587,96.34322848317409,0.004068464196657325,-0.012527602324129479,0.0026655157309044223
1.9833333333333334,-0.8087712614473684,-0.10436242454242012,96.21825512574723,0.0007558166482780246,-0.014926806056567337,0.0013483577906353522
1.9866666666666668,-0.8138760556302241,-0.10338238854342982,96.08678237794992,0.0038409188171244406,-0.013167981349218774,0.001915443731415052
1.99,-0.8235164740466927,-0.11195034603132023,95.95639968314728,0.0002086377872974484,-0.01640380499747566,-0.0007945614377974951
1.9933333333333334,-0.8360817744372232,-0.12184420618244665,95.84227026110906,0.0004429955646041337,-0.016091339665652103,-0.0031233753010074003
1.9966666666666668,-0.840934841468999,-0.1255665197472768,95.72094386022093,0.003966050806444667,-0.013299690275708162,0.00020353573516443833
2.0,-0.8564844823923372,-0.13916585771337564,95.58627913112983,0.0039072214465258204,-0.013479336129730984,0.00046683838481431086
2.0033333333333334,-0.8661326707167601,-0.14546529264178107,95.44713293229664,0.000773217303128342,-0.01593025601874146,0.0012640833382934467
2.006666666666667,-0.872797771255086,-0.14175836442020562,95.31905245308118,0.004326585284536216,-0.0135988781688368,-0.0022068249127675686
2.0100000000000002,-0.8809466998418293,-0.15132425693214954,95.18515969896184,0.0006581982591477005,-0.01714213985265269,-0.0003925348748490511
2.0133333333333336,-0.8950377058027923,-0.14606507798163815,95.04638741260271,0.0028063861136581364,-0.014716457415983103,0.0005489833746134642
2.0166666666666666,-0.901205617318953,-0.15040888812110662,94.90759163361435,0.00042090382977067267,-0.015139459234597337,-0.00030699288908929266
2.02,-0.9111188130479514,-0.15705113302343673,94.78057293603922,0.0025586913104001805,-0.014769485607923665,-0.001118120283554682
2.0233333333333334,-0.9220167533647331,-0.16703707369752482,94.63591070053427,0.0012922289355467634,-0.011873846511174437,-0.0017379788506785311
2.026666666666667,-0.912908765774058,-0.1642602100657312,94.48460283543687,0.0014701242900189487,-0.01594202496679145,0.0007110268304932944
2.0300000000000002,-0.9369624929530153,-0.17712430423811096,94.34451068450682,0.00026336621991753873,-0.014635618825748493,-0.0007442960316124483
2.0333333333333337,-0.9467113447005241,-0.17286282501286648,94.20238093627451,2.2833110314824214e-05,-0.01267483486373641,-0.0001389990770886885
2.0366666666666666,-0.9443860218033581,-0.1664416198387516,94.0493975578194,-0.0007311519030286633,-0.011080355630315352,0.0012038582452334665
2.04,-0.9463823202478646,-0.17753137598871374,93.90127397783178,0.0011332764873207266,-0.011619107179726874,0.0027441467324713946
2.0433333333333334,-0.9591942115344241,-0.18084542121997516,93.73666962383605,0.00037262080389373196,-0.013653949054286262,0.0008555788105135497
2.046666666666667,-0.9592801814187657,-0.18134961853634807,93.55148048096248,0.0009047261284286065,-0.010887617746161338,-0.0004682859048314827
2.05,-0.9636343687846871,-0.19319317975148914,93.37737250340746,0.0002966220231845727,-0.011146756298835287,-0.002978884962707423
2.0533333333333337,-0.967235038714906,-0.18679390848800165,93.20651219352952,0.00012434256515625502,-0.00865552949465884,0.0010208624335445063
2.0566666666666666,-0.9744277012311461,-0.18145985718810825,93.03545289569956,-0.000312287591978264,-0.011339168398178487,-0.00011330194130894264
2.06,-0.9790942268992903,-0.1906883453176417,92.83560093577329,0.003187652442287907,-0.007917246121002175,-0.002535699640046298
2.0633333333333335,-0.9835237241925628,-0.18609021457535482,92.63302899287484,0.0036664514205169444,-0.011464497077826596,0.002369144048167185
2.066666666666667,-0.9831239660391405,-0.1884934505613322,92.42159949814663,0.0016942754157708644,-0.007771767657755781,5.588600946012197e-05
2.07,-0.9815931175619363,-0.1949363279098691,92.21696862815969,-0.0016113697874222627,-0.009689123374602858,-0.0010930629080496068
2.0733333333333333,-0.9850514251404004,-0.1937346167095637,92.00418857392192,-0.0026971133206220538,-0.00955637794666632,-0.0006237853737000174
2.0766666666666667,-0.9773708255899289,-0.18290663062649762,91.7836059515708,-0.0009251150359558707,-0.008618941319194023,0.001615887791694157
2.08,-0.9735309214932756,-0.18779822414452982,91.57204752319991,0.000527356580132171,-0.005613853821418528,-0.0008664639250991193
2.0833333333333335,-0.9816358316560142,-0.19038808141156668,91.35026552043063,0.0013219747235669575,-0.0070061050128775995,-0.0011441473549255966
2.086666666666667,-0.9679577019740707,-0.17216992983159177,91.1099797258477,0.0011963898489623637,-0.005272924065658228,-0.000237679625027188
2.09,-0.9721645849907607,-0.1816673662200141,90.87825174735049,0.0018564492712147686,-0.006806778455510299,-0.0001918863845613637
2.0933333333333333,-0.9664731445871135,-0.17265984360607106,90.63878877593964,0.0002254394979242987,-0.004592629678874655,0.002231944425284843
2.0966666666666667,-0.96409878259134,-0.16831442166267274,90.4058335232146,0.0011984589218596992,-0.0050667718612560884,0.0017576951901708715
2.1,-0.9551028520480915,-0.17645508807586374,90.16843556609922,-0.0029844097344845595,-0.003926936903456558,-0.0010216167048939212
2.1033333333333335,-0.9582386891155531,-0.1671175134155027,89.93069323771553,-0.0020442911657709588,-0.003991922340446791,-0.0005556515194309205
2.106666666666667,-0.9408375566351241,-0.17590494622341463,89.68211116526298,0.0005901926573232473,-0.005861528061829516,-6.315189543300176e-05
2.11,-0.9455038256641084,-0.15288926345884085,89.44347710949846,-0.0012485367769697834,-0.005825540601026237,0.0014608083714857459
2.1133333333333333,-0.9345604563018378,-0.15285628881036667,89.1943030236073,-0.0011834553361173387,-0.0042229198834636186,-0.0005956473262963552
2.1166666666666667,-0.9292724958518321,-0.15875683081342074,88.94199336660476,-0.0002478436064439008,-0.0040497599272851185,0.0013517793632012935
2.12,-0.9205131353144722,-0.1486313097503516,88.71336682257231,-0.0036288528981219545,-0.004577344920600146,-0.0004990352477516959
2.1233333333333335,-0.9149523940089684,-0.14709028395486476,88.46918176810269,-0.001655819622701187,-0.0020098542659644633,0.0019097698005605334
2.126666666666667,-0.9231094797885582,-0.13235562316620858,88.22967282655806,-0.004134216685192608,-0.004561987704107705,-0.0007299250682143202
2.13,-0.9081921743065954,-0.15608003510579124,87.98622703819238,0.0023254069133233205,-0.0049329059922819515,-0.0002538752965717565
2.1333333333333333,-0.909098987132621,-0.1343889725180192,87.74879502150145,-0.0021779651222762915,-0.0011016394716933295,-0.000625430037267944
2.1366666666666667,-0.8953832985004251,-0.13443733216619858,87.50495842157505,-0.002499341045304029,-0.006042533039523075,0.0011513408560192583
2.14,-0.8900883681825766,-0.1306606159829671,87.26902657211289,2.7727064898259253e-05,-0.004219577428350545,-0.0028194754161034044
2.1433333333333335,-0.87615748975248,-0.12355476087196332,87.05037246350328,7.517282008676117e-05,-0.003631463153281749,-0.0012446713342635926
2.146666666666667,-0.8721963822285259,-0.12389204922131206,86.83284319844344,-0.0011485931940018782,-0.003636333990131429,0.0026996672058153975
2.15,-0.8719668809521691,-0.11951689290109943,86.62065514596321,-0.002234842524932301,-0.004214966095068268,0.0019429482494032434
2.1533333333333333,-0.8727734311659925,-0.11508929896774998,86.39818889728126,0.0005352234036528131,-0.002056536028857172,0.0007866102185459866
2.1566666666666667,-0.8742986838708607,-0.10589090418020429,86.18704760919458,-0.003589609189793343,-0.005818337521855503,-0.002394401093666415
2.16,-0.85995156590451,-0.11426454715198889,85.97160935170794,-0.0008694847418667639,-0.004539122193625754,0.0009825688953649728
2.1633333333333336,-0.868344943224875,-0.10991427455704787,85.75849558778957,-0.0005148221772510256,-0.004146843433187935,-8.56802901629133e-05
2.166666666666667,-0.8518742674610421,-0.09919395282227404,85.56204860305155,0.0019044782403672604,-0.006866615255617516,-0.0037530791411234717
2.17,-0.8449402775889829,-0.09758584467105717,85.35171945881336,-0.0026487607772151043,-0.005702613046932989,-0.002442597668260828
2.1733333333333333,-0.8536826319838315,-0.10578586692450896,85.12746079699127,0.0009093515305475172,-0.001940844642454117,0.0012234309591266687
2.1766666666666667,-0.8509068932288391,-0.09639130062171132,84.94218816496722,0.0022860471725551974,-0.004570852494470153,-0.0004147540654766165
2.18,-0.8447041656227344,-0.10670814346141509,84.73557082295939,-0.001176376499587458,-0.008141299502133095,0.0030089074259119553
2.1833333333333336,-0.8518233266801415,-0.10143823162756233,84.52792827424746,0.0014002507343065468,-0.005044629941550524,-0.0017478492036511423
2.186666666666667,-0.84244558672375,-0.1043856125471112,84.33018788083479,-0.0012251242877615491,-0.005412542871720342,0.0019028252283847188
2.19,-0.8499892890572782,-0.1002758650695894,84.12932198787595,-0.0042585896293248484,-0.010234490974456386,-0.0006940657761895996
2.1933333333333334,-0.8456473734070218,-0.10498376149639818,83.9176332153492,-0.00039965709617893785,-0.007470404867148023,0.0010134556648571664
2.1966666666666668,-0.8517629514400323,-0.10660077335201151,83.71239456404568,0.0018457703784181883,-0.006887829977112396,-0.0010691338125233861
2.2,-0.8453061654821419,-0.09965117106561741,83.50245224096774,-0.00038868301573176384,-0.008118597989031107,0.002546926880142324
2.2033333333333336,-0.8504255907276401,-0.09415056182860387,83.30725234595492,0.00048810613381572427,-0.007518877512613604,0.0031149692343582355
2.206666666666667,-0.8510098483451611,-0.1021254563180766,83.12332554133107,0.0016797860345945225,-0.0064779834185702215,-0.0011806665944025976
2.21,-0.849592856722378,-0.09800981929446734,82.9223693635934,0.001533416936624917,-0.007716884958295467,-0.0027006487242857737
2.2133333333333334,-0.8541720988751295,-0.11103160365573243,82.7212892781253,-0.0005424525035567786,-0.012757828497898641,-0.0036055188912186664
2.216666666666667,-0.8514706993564344,-0.1112630363875353,82.52738295069899,-0.000989820315780853,-0.008437941339867139,0.0012222035674636477
2.22,-0.8616049471828452,-0.11315997997907834,82.33932186867085,0.0008336813782007529,-0.007921552428198546,0.0007055154075750025
2.2233333333333336,-0.8713390296934229,-0.11073361805855543,82.13876444328722,-0.000722515973110526,-0.01066919776785821,6.336248616205465e-05
2.226666666666667,-0.8763850649095084,-0.12332915027923759,81.93755852665952,0.004375475571103488,-0.011534095458258304,-0.0010987060238641156
2.23,-0.8841638663478912,-0.11881190606573817,81.75953030167427,-0.0013925633920331638,-0.009823246186958932,0.0018150846882262
2.2333333333333334,-0.8865990331398593,-0.12934676493573774,81.56241057841012,0.0021977876499216166,-0.009414202266262132,0.0038990265077641162
2.236666666666667,-0.8890675279324199,-0.1331201037882359,81.36748511120616,0.0013423019855220975,-0.010216067743416463,-0.0006037999519267774
2.24,-0.8965451232843841,-0.12526115251643727,81.18371390683036,-0.0009035036490573689,-0.008039787429337685,0.0002695078286993564
2.2433333333333336,-0.8911858572002129,-0.12545197558557528,80.99345610228949,0.002237990479063298,-0.010491563605810524,0.0016401087707479881
2.2466666666666666,-0.9069024883999325,-0.13119525021451245,80.80631159053024,-0.0009524096046787787,-0.008234560508533086,-0.002775885635633393
2.25,-0.9060694312374599,-0.14115601693718471,80.61807128758073,-0.005072062873140116,-0.00869821587793471,-0.0012465839493221967
2.2533333333333334,-0.9200420240029555,-0.13938286139824613,80.43112317102037,0.00012086343677395351,-0.013119094246482365,0.0020653160677773143
2.256666666666667,-0.9210646687895149,-0.14116736230363205,80.2407080971621,0.002171466269263535,-0.011250208625779275,-0.0003521562575020424
2.2600000000000002,-0.9197891914267483,-0.1359419428949459,80.05720934234704,0.0013088882311488802,-0.01139369212647966,0.0011516695502663387
2.2633333333333336,-0.9204838477333502,-0.1398189462786095,79.88329894609701,0.000588554945628626,-0.010562508999093969,-0.0011984664760750993
2.2666666666666666,-0.9323198838544512,-0.15091010443943,79.72092036047123,0.0012782306700911744,-0.009112794413581116,0.002809963330488503
2.27,-0.9245428285197829,-0.15674136719764892,79.55003285892046,0.0017565329784849854,-0.010566540513264354,-0.001178394101282993
2.2733333333333334,-0.9365047159639865,-0.1495185369738345,79.38504743895514,-0.001541555307590679,-0.011844049243682637,0.001303897970414329
2.276666666666667,-0.9392422367375849,-0.1488999471751977,79.2300148907278,0.002872768992231589,-0.00920292378671921,0.0015561088789673868
2.2800000000000002,-0.9402129853976877,-0.15759631063328308,79.06233549610391,0.0005402687819720858,-0.010729987852217918,0.00021006601231354996
2.2833333333333337,-0.9447641350064835,-0.15141204098563601,78.90381513941571,-0.0002693482720626933,-0.008536599181298475,0.0007966260020867752
2.2866666666666666,-0.9424915723316035,-0.14852733879509972,78.75933464176059,0.0030566030542863195,-0.007900027463233115,-0.0012355348969509954
2.29,-0.9490371384866818,-0.14756804346046237,78.61482653630131,-0.0011014681995705387,-0.006963034820025785,-0.0025830042591662625
2.2933333333333334,-0.9356501326956449,-0.15801054531959846,78.46988378409121,-0.0007272130835866919,-0.008270399385290318,-0.0004719970846695301
2.296666666666667,-0.9572948747046237,-0.15434867813457157,78.32608497987343,-0.0015938418201376793,-0.009421109377580382,0.00041754373130896633
2.3000000000000003,-0.9568995371905883,-0.16215926713249693,78.17254290977942,-0.001045535380778802,-0.003656036269438865,0.0007304803260955039
2.3033333333333337,-0.9547877445180502,-0.15458320517307622,78.02260230008595,0.0003098263815976922,-0.008758683761407616,0.0012880697993888867
2.3066666666666666,-0.9592093072727934,-0.14959933699163824,77.85441655401885,-0.0004534887861920136,-0.005968083512486025,-0.0015025046959937637
2.31,-0.9542741904854075,-0.15514493109571842,77.69878444967871,-0.001164750934644309,-0.007492662971353403,-0.000801287633223441
2.3133333333333335,-0.9575927650033318,-0.1425644458258238,77.5191932560117,0.001134598888246573,-0.007660417139722116,-0.0025437272056516584
2.316666666666667,-0.9524814422954944,-0.15050851597695597,77.3705314620726,0.0007682715342022539,-0.007577032358221958,4.384053582235908e-06
2.32,-0.9624276008937707,-0.14555713041004778,77.1934844265141,0.0004805867151985442,-0.006214290318528041,-0.0010903297024750654
2.3233333333333337,-0.9564338058750546,-0.15252528619518776,77.00136958054216,-0.0015938501671657031,-0.00882101429006967,0.0009351013738787924
2.3266666666666667,-0.946805616670078,-0.15191364077410158,76.78206289327669,-0.00016966057356461662,-0.006772747856554202,0.001673124529543956
2.33,-0.9598016713803226,-0.15001801205483134,76.56991585637965,8.612163361338429e-05,-0.008450535316147673,-0.0007122616786120767
2.3333333333333335,-0.9480541894147527,-0.14706880186299895,76.35474410520382,0.0023055168909855536,-0.0064201522986913695,-0.0020404902856369484
2.336666666666667,-0.9550939813548188,-0.14866715045366044,76.14279283681947,0.0006134543933200376,-0.010548808271910654,-0.0012181604832587627
2.34,-0.9388452164547324,-0.14668970241530446,75.92301936318202,-0.0009755866858317283,-0.009711009202551177,-0.00029805826835179513
2.3433333333333333,-0.9354491541307522,-0.1494633782710933,75.71995959159702,-0.0016078845634530307,-0.007461223413044681,0.002708743715122687
2.3466666666666667,-0.9488104351518631,-0.13609374363523974,75.5115029199071,0.0003632638102417335,-0.0032331419268064364,0.0008589531355419452
2.35,-0.9493689007450677,-0.13845124216737942,75.29783231077148,0.0007873129403861128,-0.00882556251094548,0.001061206826966604
2.3533333333333335,-0.937783252236585,-0.13111025203053414,75.07861700998772,-0.000763574245229723,-0.008020522957583178,-0.00020117731591859546
2.356666666666667,-0.9414424186173845,-0.14718682120689078,74.86993507061804,0.000182760446421303,-0.00739697817626863,-0.0012097587303803515
2.36,-0.9368543599132619,-0.13618387783213542,74.64567081138217,0.0005120656857406721,-0.005148484927438347,-2.2773736007536242e-05
2.3633333333333333,-0.9345209472339348,-0.13439949810818339,74.93214702359506,0.0007825442962355322,-0.00531303335253489,0.0009705219218797994
2.3666666666666667,-0.9321963336010356,-0.14290292607171654,75.3592704517333,-0.0016330369325603198,-0.007984574751582617,-0.0005278871700716622
2.37,-0.9273034025416813,-0.13275492589804547,75.77970609250998,0.0007240205926091518,-0.008351192850802484,0.00062542052309235
2.3733333333333335,-0.9190537230696768,-0.12548448607956084,76.20522439395224,0.0015065771236877185,-0.004691995046944177,-0.001611609489887109
2.376666666666667,-0.931945776630604,-0.1368645129715897,76.62590953182512,0.00035378848831471067,-0.008372801946417608,-0.0017864158412582909
2.38,-0.9256267335178835,-0.1283122668967071,77.0522856940421,0.0018319802719163401,-0.0074649674178288725,0.002593953710754978
2.3833333333333333,-0.9251411647004646,-0.13104129765924272,77.094840333253,0.000645597214813962,-0.003800727080380691,0.0037277619597077356
2.3866666666666667,-0.9175760828058511,-0.11577502856304411,77.02274638734839,-0.0022943476175999594,-0.006800263712501278,-0.0006271066038161141
2.39,-0.927980293046971,-0.12659625727749074,76.95278385238427,0.00037164993974354567,-0.0037669922997064184,0.0003755877472567037
2.3933333333333335,-0.9068064027051018,-0.13030629938527621,76.8721925244855,0.0015428696734657412,-0.0017379185483633614,0.0009302143241400188
2.396666666666667,-0.9128154635649827,-0.12680518320232953,76.81223393132815,0.0005929822562001281,-0.006191543174224709,0.002462398581635856
2.4,-0.9170855430166029,-0.12041254717360642,76.73401642016395,0.0037287685312235776,-0.006847018979148494,0.0009273331266328322
2.4033333333333333,-0.9138114797309459,-0.12229979994503344,75.69915110924836,-0.0005981048623682244,-0.0088773086510506,4.296552109876705e-05
2.4066666666666667,-0.9122110037795558,-0.12163306496359227,74.37155874339655,0.00033989776573524054,-0.0071290089505483215,0.00023245924390484873
2.41,-0.919471887012905,-0.12336666196655752,73.04806295365043,0.0018271531194613113,-0.010602275833159619,-0.0015102465680283204
2.4133333333333336,-0.9122945574998965,-0.12561800986852945,71.71010897722282,0.001138215850403129,-0.0065151188884672835,-0.0008247869443677632
2.416666666666667,-0.9174345401916308,-0.1261254090877939,70.38857328497689,0.0026789046307699625,-0.00845225709552348,-0.0019913136937920765
2.42,-0.9125631672586798,-0.1227534731505086,69.06423075342057,0.0005437611090424278,-0.0049760884786561555,-0.00012690929011153476
2.4233333333333333,-0.9154126070918073,-0.1276751411110696,67.51944864191007,0.00018040978983724192,-0.00855274989885753,0.0019921191107735684
2.4266666666666667,-0.9171167846725998,-0.13237192231838726,65.91416355289178,-0.0024255697901033857,-0.007224350662976958,-0.0005160576363883665
2.43,-0.9171726005465782,-0.12094329871427728,64.32637271825472,0.0006879664844643721,-0.009609516124837045,-0.002770902232063964
2.4333333333333336,-0.9185362786268805,-0.12851075610987156,62.730445584660295,-0.002735177550675178,-0.005316879826667552,-0.0019845812367220057
2.436666666666667,-0.9215238695305803,-0.12195661357185493,61.13121355740502,-0.0022573998757023225,-0.007570311569149534,0.0024268196179871027
2.44,-0.9225140603037902,-0.12580539584786904,59.532249650955414,-0.0010317218496417146,-0.007169634621985372,-5.5081029805075586e-05
2.4433333333333334,-0.9268238161189737,-0.12986242027669134,57.39353563471005,0.00011803095835012602,-0.008532546646978036,0.0011110897932219016
2.4466666666666668,-0.9300487594086705,-0.1214873745580154,55.089886584782576,0.001585241709812336,-0.00824550520461359,-0.0036155450452507953
2.45,-0.9421256378760758,-0.12361348311077693,52.78149881106428,0.00043684260615009843,-0.012433565580679946,0.0014272086384287369
2.4533333333333336,-0.9380297176683241,-0.13051782130773584,50.47816555197155,0.0013994758423932945,-0.009190023198873612,0.00042629516449135455
2.456666666666667,-0.9420940873389607,-0.13354550021882375,48.17828105081244,0.0014107942487207505,-0.007585584126681664,0.0007327029907590056
2.46,-0.9475954981856035,-0.11776516466903081,45.87311812687441,4.5171176359109586e-05,-0.01045317896182183,-0.0008520665398205738
2.4633333333333334,-0.9616092131778026,-0.1328144783064921,43.97030785027307,-0.0014465485797716675,-0.01100099715232895,0.000956943795029903
2.466666666666667,-0.953887534647844,-0.1260089721259988,42.203570747723525,-0.0014665341682339886,-0.006600151402446542,0.0008921747601481206
2.47,-0.9587214615666837,-0.1233173040600905,40.42160193938812,0.0028433260856526943,-0.00780996377329966,-0.0004471651146583547
2.4733333333333336,-0.9688022796411055,-0.12941374400863376,38.647775364390554,-0.0006016906607841396,-0.008582029046912526,-0.002376399721884652
2.476666666666667,-0.9699080321651884,-0.12845725390412382,36.86961313002482,0.0015132656493278248,-0.0037928536979431023,-0.0017491919419443992
2.48,-0.9753080566863808,-0.13866140758179762,35.08209884146986,0.000712278541009417,-0.0109938056829108,-0.0003717257884309358
2.4833333333333334,-0.9736488025817476,-0.12462809227476696,34.29385209404525,0.0025575063404786355,-0.005871427584043309,0.0021046096604329157
2.486666666666667,-0.9774525434403697,-0.1291525399669288,33.7812707144713,0.004219708896248391,-0.009132544888279063,0.0008888731464605613
2.49,-0.9870506085728101,-0.12948811228671694,33.28505029205132,-0.0020880969163590067,-0.007855072980960763,0.0003262900683624761
2.4933333333333336,-0.9870551842185082,-0.1357850056574607,32.77560405707932,0.0013312113339162047,-0.008314612697950717,0.0033749113864891818
2.496666666666667,-0.9915625027377934,-0.13561103869678742,32.276655684213054,0.0017057807362379105,-0.008235209497093478,0.0007560413176527325
2.5,-0.9905176559831088,-0.13100164273751805,31.772150398072082,0.00319762370230236,-0.006887303564561323,-0.0007503349667548529
2.5033333333333334,-0.9859252438773454,-0.13495783986709112,31.503376172858278,0.0008576481139834712,-0.006589025098314459,0.00031497715656425763
2.506666666666667,-0.9921936822380464,-0.13145073844828575,31.298416176948624,-0.0011902109142412406,-0.006610134573985099,-0.0018263009348460414
2.5100000000000002,-0.9937771746545038,-0.12657707721469214,31.10006012143472,-0.000850231999245793,-0.006025709843471467,0.0012782935768227458
2.5133333333333336,-0.9986557105709795,-0.1436981598753035,30.90213070218475,0.0003811782807635973,-0.007043112228778516,0.0024680881782976937
2.5166666666666666,-0.9851460306716112,-0.14116303927458806,30.709547910470516,-0.0010613948861105072,-0.008257823169751695,0.000606922924787956
2.52,-0.9897535450228052,-0.14521096102298153,30.507760616550026,0.0027200782646432035,-0.008533553832666314,-0.004174891002059687
2.5233333333333334,-0.9864799698202431,-0.13194855622210433,30.354814345922833,0.0013935793995251567,-0.007227606175870056,-0.0007748892246650429
2.526666666666667,-0.9907038293084905,-0.12286690176643776,30.213607834960083,0.0003710214915047751,-0.006710874093490764,0.0017573630887221877
2.5300000000000002,-0.9831467299815403,-0.13891079608788523,30.08231886233545,0.0025496156794157657,-0.0045715975365855765,0.00017552404015251714
2.5333333333333337,-0.980335035026178,-0.14087898488883135,29.960371418145424,0.0024421503225678497,-0.007539217403946488,0.0011087417317638584
2.5366666666666666,-0.9731108888243091,-0.13527225684986308,29.81501989305976,-0.0005094122286920869,-0.003711827685040327,-0.0007387399695012903
2.54,-0.9718832462556842,-0.1395813723978643,29.678842512708247,0.002272642678751278,-0.004023280259902019,-0.0005244823161821879
2.5433333333333334,-0.9698127001264288,-0.13382941352572342,29.543655384376766,0.00013890663415545975,-0.0043507220093221876,0.0008956624285788778
2.546666666666667,-0.9692369202052926,-0.13347365813620185,29.41463842417077,2.4098064704929523e-05,-0.0070591499382226496,0.0011477455953393654
2.5500000000000003,-0.97095411816828,-0.13537784525711796,29.274003771676586,-0.0020667237980623206,-0.004204799629471701,-0.0009612364110309493
2.5533333333333337,-0.9660898719135885,-0.14801996486461044,29.14323854418807,-0.0017700860599309427,-0.0038027236617968205,-0.0010393467897249545
2.5566666666666666,-0.9678954683882519,-0.13900156156896742,29.001678764872935,0.001843435763582145,-0.0043225330718528005,0.0008009564806858652
2.56,-0.9652748420051194,-0.1403930434449081,28.875904459514413,0.0014272962879322494,-0.0058580691015056,-0.00038353308825707323
2.5633333333333335,-0.9498326270385195,-0.13199185443877468,28.76576874918377,-0.0006145342572554956,-0.00204953337717062,0.000906348139838695
2.566666666666667,-0.9618674252079057,-0.14307514760370912,28.68543292594889,0.0023007877598093434,-0.0059158583233417305,-0.002742629030942461
2.57,-0.9553159046749133,-0.13626101717265166,28.598109364849716,0.0008215155340088418,-0.008689853537768239,-0.002254704205493847
2.5733333333333337,-0.9523473783983795,-0.13259919534048567,28.51287248748707,-0.000999931149326433,-0.005619706674421359,-0.0004986124359695036
2.5766666666666667,-0.9536550713292844,-0.13645299769988573,28.42656906207355,0.000250153968241118,-0.00685859370759479,-0.0019758055960223354
2.58,-0.9518393189899469,-0.12661004282913096,28.343370656816898,0.001934403844254631,-0.006680585900057169,0.0012304335150399182
2.5833333333333335,-0.9557801911947581,-0.1215361412533795,28.22761953604809,0.0035780665982191526,-0.006923455856139914,-0.0016148733884224756
2.586666666666667,-0.9526541678467545,-0.13552028309299596,28.102436705281768,-0.0029517968635172625,-0.0078000906805863034,-0.0006139368156663809
2.59,-0.9338911523439241,-0.12958722930043629,27.97904724142098,0.000667452474335096,-0.005505485741994663,0.0016214044160854399
2.5933333333333337,-0.9401891960952224,-0.1391339796103895,27.843271812441003,-0.0004467715921332205,-0.002897991427398901,-0.001380065674756092
2.5966666666666667,-0.9489835036954006,-0.1325798086041538,27.70525379039147,0.0024336537591959405,-0.00272112578114839,0.0006418383839969034
2.6,-0.9520250885381597,-0.13362062095662092,27.58625640830774,0.0013892422101392096,-0.0055800633046828715,0.0001258593788738559
2.6033333333333335,-0.9502258366486749,-0.1313129500721004,27.45097155402825,-0.000930144120823477,-0.004274317977418172,-0.0019291687620998335
2.606666666666667,-0.9477627311571248,-0.12366579494502988,27.323505956980426,0.00046087105401043947,-0.008364824944689151,-0.0015267964574648464
2.61,-0.9409912970268176,-0.1381381182343323,27.175700165475178,0.001438519838305851,-0.007657130037454285,-0.003047764761270632
2.6133333333333333,-0.9544566448323233,-0.12400452439927295,27.054187007576914,0.0002213367615300181,-0.008846471963832135,0.0012379509073806268
2.6166666666666667,-0.947577253295371,-0.13849598530622667,26.908415723435592,0.003849344893817525,-0.005877245909062838,0.0008045709572967231
2.62,-0.9564139562416074,-0.125334213161244,25.33853595215915,0.0021805593808823494,-0.009816519841127472,-7.316937808943157e-05
2.6233333333333335,-0.9544722334564277,-0.13036483249967212,26.65052852727049,2.3366586329941392e-05,-0.004746147002021406,0.0007525349775439934
2.626666666666667,-0.9619380423911064,-0.12412042743300036,26.520983845491084,-0.0013733386795130112,-0.006897760674320215,-0.001830314642649044
2.63,-0.9565316939432621,-0.128016201108441,26.39137698323963,-0.004071360477474676,-0.004879114939775456,-0.0004549562790796321
2.6333333333333333,-0.9582319236408655,-0.13143435716774782,26.276750403630462,-0.0015028138892603494,-0.00912388438722773,0.004270465632552806
2.6366666666666667,-0.9545010392378959,-0.12153975767815514,26.134011078703676,0.003019272669026252,-0.008023138960739879,-0.0041563385302473685
2.64,-0.9591054604798651,-0.13357212929393003,26.005731219290144,0.0015829042859036371,-0.005209459305327714,-0.000990102649183285
2.6433333333333335,-0.9506312525761095,-0.12542472255985462,25.886065876395463,-0.0012301484411790698,-0.0077287054808889205,-0.0014681935747976446
2.646666666666667,-0.9629400230409734,-0.1298692190811593,25.764149946305235,-0.0009426488234592204,-0.008956658100100818,-0.001849897859554052
2.65,-0.9724773001083067,-0.13544429385626883,25.637286228320114,0.00045865020546204496,-0.011109401500432641,0.0006842190088669645
2.6533333333333333,-0.9648617612957848,-0.12017908480899259,25.501561392783973,0.0018839916310193084,-0.005777374231753224,-0.0006275104373865186
2.6566666666666667,-0.9701786912374188,-0.13581678831494687,25.384453774147232,0.0027000053950554602,-0.010902977080304998,0.0009241245473350072
2.66,-0.9769918163076717,-0.13366685446300916,25.252283000903173,0.0035359789887056616,-0.0053057793670528465,-0.0018573876002183835
2.6633333333333336,-0.9814323620289261,-0.13849519274159997,25.137737278948514,0.0011823924747617883,-0.007843691073875532,0.003181356900667665
2.666666666666667,-0.9673127507864363,-0.13413536606967222,25.037522651809333,-0.0025002079471581284,-0.010136874881249836,-0.0025780842422206845
2.67,-0.9786861500091013,-0.140043930851068,24.926193774769686,-0.00367479417256351,-0.007793958121615483,-0.0008989024648561603
2.6733333333333333,-0.9891889963532822,-0.13972756947474665,24.812150463336344,0.0027260353656680457,-0.006076058984173936,-0.0003406327134873941
2.6766666666666667,-0.9818759720928687,-0.13195843255785863,24.70843076648746,0.0007728442682488552,-0.01043946066684454,-0.0013645026810210974
2.68,-0.9773422861531953,-0.14088672339524144,24.601203837246207,0.0008028082278725808,-0.0055019133528067185,0.0006006110566267156
2.6833333333333336,-0.9876970505197681,-0.13270485122138018,24.504643773060565,0.002590468073996779,-0.008936649848166462,0.0006394960942771281
2.686666666666667,-0.9794187049205233,-0.13204558995251955,24.403121475000074,8.660840352734967e-05,-0.009261769643488496,0.0026823832760873413
2.69,-0.9869859709931418,-0.12950514027040358,24.298045171307677,-0.00057839925825379,-0.007489916594956418,-1.7310939002276608e-05
2.6933333333333334,-0.9935056183366314,-0.1302600711733429,24.216677078725713,0.00048492452372651335,-0.005302512573908304,-0.0008794703403786866
2.6966666666666668,-0.9826930298975629,-0.1405511014821399,24.10425688267498,0.0026514287610611064,-0.00825174387807204,0.003433107148918514
2.7,-0.9867981045211487,-0.12993594138559458,24.010433013187217,0.001657895263739881,-0.00636314354869902,-0.0017007264413042907
2.7033333333333336,-0.9901741025988758,-0.13742872448287805,23.90326921823922,0.0005160180794511805,-0.008717905530473155,0.002603250233491945
2.706666666666667,-0.9966748214912242,-0.13482126578466036,23.815713529274014,-0.0008420131462994469,-0.008186280193916907,-0.000947065106448826
2.71,-0.993225913941854,-0.13566297061133126,23.716739830947205,0.0005837465487643924,-0.005580097660964202,-0.0009743101702405135
2.7133333333333334,-0.9902131835609166,-0.13159185975421442,23.618013044515894,0.0011175891614462422,-0.008204382438477284,-0.0017876227470479554
2.716666666666667,-0.9844057079157177,-0.14217623943920607,23.513483997474083,0.00033509100543963185,-0.008200832401218786,0.0023493765328258358
2.72,-0.9889412038032642,-0.13449871915350514,23.422964634753598,0.00052444452304128,-0.004071421805966529,-0.00021020124040734058
2.7233333333333336,-0.9840873722686954,-0.13642203379597756,23.318879358148685,0.00097024104520381,-0.00953985964817163,0.00020546767582506047
2.726666666666667,-0.9867303254688494,-0.13513157864210582,23.22360820374961,0.0012096580446858672,-0.007645433742668437,0.002191122533040547
2.73,-0.9940770536621345,-0.1360980913800514,23.132682813468765,-0.0008663418984143899,-0.004071665623397308,0.0008055339569546866
2.7333333333333334,-0.9951699004915712,-0.13208599379785388,23.023911614391636,0.0015877454074895475,-0.006622971909963812,0.00028078138491930863
2.736666666666667,-0.9870612740462068,-0.13122481136707173,22.927251031687234,0.0014200315556445716,-0.006743520768680086,-0.004061380301986837
2.74,-0.9948799482583183,-0.14607026627235506,22.828926077533602,0.00035080635946695685,-0.004714990356525738,-0.0005792797616577482
2.7433333333333336,-0.9825417779837927,-0.13580953615183936,22.741397347345426,-0.0003227042755246625,-0.008845193651586168,-0.001447518792181691
2.746666666666667,-0.9895693165611807,-0.14293374924629704,22.636573626504777,0.00013221087970085677,-0.005518637532415056,0.00047987365847046876
2.75,-0.9886657545466258,-0.1347652985555567,22.54347916574522,-0.002686019103573924,-0.005171224554348829,0.00016576286829997992
2.7533333333333334,-0.9852982306012013,-0.1351746517938015,22.45666825007019,-0.0003636460742487823,-0.006828505347020346,-0.0022853736756646066
2.756666666666667,-0.9858971450163045,-0.14327665858239613,22.356130227291658,0.0010572885440448378,-0.007113398327781708,0.002625121464587509
2.7600000000000002,-0.9828378167962785,-0.13182005985164186,22.255570827991313,0.0012019218033236224,-0.007204701117491161,0.0016244425915389856
2.7633333333333336,-0.975065926799503,-0.13870495403260422,22.165984386751884,0.003683879051323945,-0.004832223314195034,0.001220354996357774
2.766666666666667,-0.981682060835436,-0.13213744890296283,22.066647983828805,0.0008423279016976405,-0.0079980572862469,0.0011934655190590292
2.77,-0.9820164551815024,-0.13464661707647643,21.96382274340011,-0.003254785084301372,-0.006484999892706763,-0.0017574904825901241
2.7733333333333334,-0.9689972314925571,-0.12909604141989794,21.881708050146067,-0.0025699712772639096,-0.0055666947813295745,0.0006961353249066669
2.776666666666667,-0.9882489419195447,-0.13303775096998077,21.78209488536897,0.001135466843192953,-0.008349275109304962,0.004220215610634666
2.7800000000000002,-0.9784213267367146,-0.13700592260793118,21.692757944444867,0.0008605475056581857,-0.0074272514832695435,-0.0015117835767524802
2.7833333333333337,-0.9821516899619798,-0.13195331920821804,21.600294619149523,-0.0004571271108105775,-0.005351745987469168,0.002777242650911922
2.7866666666666666,-0.981719142278255,-0.13003639761608352,21.51566184384606,-0.001757233345905719,-0.005558205795150716,-0.0028858411710570822
2.79,-0.9765029329690895,-0.14353978807086165,21.42734269118864,-0.003163275914314508,-0.0051003675053173225,-0.0007098499536883657
2.7933333333333334,-0.9931948549460604,-0.1309058721266546,21.328793521663222,0.0005067022613374008,-0.005242544232680531,-0.0013248757184484191
2.796666666666667,-0.9778101620060374,-0.1324441979738174,21.245516183444593,0.0024815799603882848,-0.00474592185907308,0.001134208165489707
2.8000000000000003,-0.9847116025183783,-0.12836271378499386,21.162664257723623,-0.0013325570938961548,-0.005979275576441303,0.002109772316132512
2.8033333333333337,-0.9841388435794705,-0.13644826483364866,21.077305604953228,0.00033422108008445805,-0.005559839958433058,0.0028307971769607016
2.8066666666666666,-0.9842096595677223,-0.12688562321090208,21.005656898091612,-0.0005708032451289024,-0.006196678850622228,0.0017323274766499626
2.81,-0.9805935548482115,-0.1309029003282345,20.926404645613307,-0.0003210866032767876,-0.006855334298196543,-0.0027637454254515956
2.8133333333333335,-0.9888052613367445,-0.13184741795994165,20.847782307211922,0.0025413569262983976,-0.005091173847516814,-0.00037496281660926
2.816666666666667,-0.9797734103761283,-0.13116923954306417,20.754285419381272,-0.00021246925851694945,-0.005673575855375424,-0.0033608719226865596
2.82,-0.9864948974948555,-0.12372666325205582,20.690941350503408,-0.0013242508902436985,-0.007505533592508286,-0.0031587794533062164
2.8233333333333337,-0.99168969892974,-0.1257708544801669,20.621823147785687,0.00014301326646029962,-0.009020627515510669,0.003769149958947854
2.8266666666666667,-0.9932767629164554,-0.13779537417325202,20.531162022320107,0.002502524695253294,-0.0056972192238868204,0.00027688289261708295
2.83,-0.991845267447923,-0.13560977536867394,20.45250409818521,-0.00034752360623689453,-0.005970584198606323,-0.0002662826193864038
2.8333333333333335,-0.9996157232968549,-0.13620061552888518,20.37250330910906,-4.673894742654244e-05,-0.007971488011148267,-0.0008570270205201559
2.836666666666667,-0.9910930273340127,-0.12550883486012637,20.293401163993064,0.0030954715027005295,-0.008170199659822432,-0.0019387172994521143
2.84,-0.991181569843968,-0.13955672030920965,20.205279912768095,0.0006970236245128834,-0.005798439688738835,-0.0002045438798253269
2.8433333333333337,-0.9884985687059445,-0.13930159302205747,20.131978753747198,0.0004834022010720218,-0.007163090740357146,0.001999901136507624
2.8466666666666667,-0.9902613917457845,-0.13845658231077632,20.069393182433963,0.002266867275918338,-0.006259128514002694,-0.001224007170199421
2.85,-0.9988453869279166,-0.1371514123832761,19.99630453374643,0.0009524187113551575,-0.006395612447647789,0.0009299888206496816
2.8533333333333335,-1.0072127253928906,-0.12651568105075278,19.943473862438797,0.0007305170782166833,-0.008284323503370546,0.0013474543775074033
