time_s,accelerometer_x,accelerometer_y,accelerometer_z,gyroscope_x,gyroscope_y,gyroscope_z
0.0,4.601206150274685e-05,-0.0013739246807871021,-9.777522196052319,0.002048319084737035,-0.0013843959673591165,-0.0011774336589017885
0.0033333333333333335,-0.0005770212854013575,0.00596381625988294,7.590435104412141,-0.001456409991285337,0.0018151002827070397,0.00044683146997889816
0.006666666666666667,-0.005322803636547004,0.005450310297526646,12.09371769429655,-0.002974165605948277,0.0005997257779714009,-0.0020147500786989077
0.01,0.009566493716795906,-0.002750760557700329,16.570809259778848,0.00031372692954245734,-0.0023599384350723508,-0.0009692700930544164
0.013333333333333334,0.004433595541601372,-0.010281890714826252,21.07071289810311,-0.00010824751308321842,0.003187507573944314,0.0031286066205205966
0.016666666666666666,0.002324538401652571,-0.006138702652740333,25.57035702650415,0.0003632200516841876,-0.0037332076203297556,-0.0010282818805232557
0.02,0.002372771924578615,0.008443960430813515,30.06706217545872,0.00016705340169081466,-0.00045995878666221904,0.0020002018886841645
0.023333333333333334,0.0036656051285307023,-0.005697031020931444,34.55474243816109,0.002751005859291847,-0.000845627206206784,-0.003371737246322342
0.02666666666666667,0.003552139953884627,-0.008227736562996265,39.06389183957893,0.0004274923198801269,0.0003898769313056365,-0.0046713399975109775
0.03,-0.010027601983445239,0.0011429648474491044,43.56755370137952,-0.0014917464321738724,-0.0007066307035234546,-0.0007581379563606022
0.03333333333333333,0.012474868138886245,0.001275743450378032,48.04760366317512,-0.0004810762865829388,-0.0022381691560510206,-0.00033708758734055365
0.03666666666666667,-0.0062978431655606034,-0.0008067983188838504,52.542443631958555,-3.685479183101234e-06,-0.00012737153966622605,-0.0014412228142173143
0.04,9.841268280091529e-05,-0.0034059795791618838,57.04799637505016,-0.0010789603355201808,0.0021308590131438273,-0.0017437243705575502
0.043333333333333335,0.0030287322579919678,-0.003046908245168056,60.897033648045955,-0.0011631866836443593,0.0012830147225309666,-8.87370408144992e-05
0.04666666666666667,0.0014152689476192276,-0.005253363999176477,64.73820767275159,-0.0006422705730981262,0.0006734589488224044,-0.0015726583192380295
0.05,0.00015609101117684343,-0.008891287575023986,68.56871884153264,0.00044465593023154144,-0.00041681345292911867,0.00023126937872266636
0.05333333333333334,-0.003497655184114702,-0.0029761953586257073,72.40304027967859,-0.0014325768301575968,-0.0003574182617239649,-0.0005164348586468667
0.05666666666666667,0.005417028776969028,0.001175689976531897,76.23293496584789,-0.0006550603409717611,-0.0019244169291875205,-0.0009566595064076571
0.06,-0.007289748503020169,0.0037905476740050068,80.08282249950531,-0.0016323553081597838,-0.0016500858561728706,0.0005687743717130512
0.06333333333333334,-0.004611885869444285,-0.004315781213990549,81.27829272291575,-0.0030645618745647114,0.0004886083980417844,0.0012387689509200832
0.06666666666666667,0.004722515437269699,0.0013818882331616327,82.39148992735736,0.0005764861252375188,-0.0005215408223998937,-0.0003148948712683573
0.07,0.0016476897466037375,-0.001425244028214588,83.49649357392757,-0.0016834120403555715,-3.699509950910063e-05,0.0018571337344924607
0.07333333333333333,-0.0006139032264096986,7.98631427900545e-05,84.62367616631346,0.0018063530087642633,-0.003053507260682236,0.0006992222315101584
0.07666666666666667,7.685747611639353e-05,0.0008965935030823559,85.73305313903295,0.0007543943779792104,-0.001101115023167837,0.00010174385404411332
0.08,0.0009114907463605605,0.0019473909835094206,86.84928496263231,0.002954459423108814,-0.0031650013104983976,-0.0007749160541281592
0.08333333333333334,-0.0002987472992005414,0.0011223778777260842,86.68973608998584,0.0010433639231380535,-0.004774738312584204,-0.0002835545126374439
0.08666666666666667,0.007581380041737391,-0.00768458646694812,86.48792184126229,2.900138622767309e-05,0.001725847278685044,0.003342317106070472
0.09,-0.0050762468373947035,3.254788307621774e-06,86.28112697319932,0.001146938323050253,0.0013469687013257991,0.00026000332330881594
0.09333333333333334,0.0015370424631688691,0.0010786339762794207,86.08746185116254,0.003658611999814098,-0.002295719554568282,-0.002439193352148078
0.09666666666666668,0.012784096096514005,-0.0016330502488209968,85.8835591379462,0.0014277885412274593,-0.0017993839226868621,0.0012079317645000075
0.1,0.007039173745506119,-0.0007871222013555579,85.67694884659319,0.001999835494531008,0.0010270982982246986,-0.001670563446738561
0.10333333333333335,0.007097331000532181,0.003756561014490205,85.5083246063728,-0.0009614738735442551,0.004572621831916058,0.0023850174161371535
0.10666666666666667,0.0013617861716651635,0.003952473273806042,85.3384673103881,-0.0009669631339132079,-0.0035631077629453517,-0.00026515387070377174
0.11,-0.0019564081342936333,-0.0024356907851889424,85.16862928088271,0.00288208513697127,0.002935239781088463,-0.001924076483109845
0.11333333333333334,-0.0002458071757014886,-0.00490528979168673,85.01175598627195,0.0006469184242097819,-0.0017045473822025253,-1.8120857519897893e-05
0.11666666666666667,-0.0024664842603421724,0.0022045920340577154,84.85459464050709,-0.001605195064726969,0.002656245616214856,0.00012245257785025945
0.12,-0.002571128297758039,-0.0051688163864961716,84.69458253011116,-0.0025822197951583248,0.00019593432480181507,-0.0007720884690392503
0.12333333333333334,0.0002672517901714768,-0.002306127962722084,84.5967517449065,0.002858723795605131,0.002008511734726069,0.0014916945318289698
0.12666666666666668,-0.003894516333147072,-0.005995600218489151,84.50178533695998,-0.002574350731863304,0.0017824435819669545,-0.001685114806385948
0.13,0.00043932809102898264,-0.006198140308325199,84.4092672943526,0.0013252991149794349,-0.003237455004258295,0.0014149623242260866
0.13333333333333333,0.005200749505949116,-0.0009188913591143919,84.3087691386018,-0.0015538366484501407,0.00237105681368187,0.001013459248149579
0.1366666666666667,-0.008791517319972169,-0.0065395255198389315,84.22296268627356,0.002034680948409731,0.0010275595795399626,0.0026343178016478537
0.14,0.004274715902305811,0.003260442435615367,84.13520312839123,0.0008743723430200332,-0.00023465776212476525,-0.0012763129006057945
0.14333333333333334,-0.006418469696734359,0.007711839720565491,84.13371623131226,0.00317103720742225,-5.709851985838962e-05,1.8754193490288103e-05
0.14666666666666667,0.0028253520992863436,0.011414293035343616,84.13233986281936,-0.00038088486746360866,0.0008203981580561625,0.0047159417118700295
0.15,-0.0025766058449477624,0.008180955079352507,84.13274615443406,-0.0017983789068309458,-0.0014674655678618557,-0.001045270496436748
0.15333333333333335,0.00386339240672472,-0.01086574896125305,84.12811774449754,0.0019661415065554545,0.002991861329652769,-0.00032783919636902544
0.15666666666666668,0.003551341279947654,-0.0026730634077388065,84.1279822377303,-0.0020494495110239593,-0.00044980527278938386,-0.0008397893547176178
0.16,-0.005575237652187048,-0.0005827536566321649,84.12891273005505,-0.0005535144604180512,0.0009528123671434855,-0.0007805761142488025
0.16333333333333333,-0.0014904640535044673,0.003815779742698904,84.1723005495731,0.0006766377373902537,-0.00038780408392247433,-0.00263405068928408
0.16666666666666669,-0.007708474745448,0.0036257895509014273,84.2140647236804,-0.0011047209428510665,-0.003564803135658417,-0.0003401599253039614
0.17,-0.0015730696563133761,0.004843350028218147,84.26517048127364,-0.0015741022275562928,-0.0005506063399449953,0.004359452812515953
0.17333333333333334,-0.0001385991891300575,0.008330980926803755,84.30066025449084,0.0013371353628855098,0.0018465745285193836,-0.002655513038316925
0.17666666666666667,-0.01984292098382483,-0.0029151657048951986,84.33852432733833,-0.0021461838963975723,0.0018382724128983786,0.0013226383765978153
0.18,-0.006300922531896272,0.00045334848363611234,84.37996368236735,0.0012017717668744194,-0.0003202772431273845,-0.00023925272715802018
0.18333333333333335,0.0020550316151999974,-0.005250277945733642,84.38938848531313,-0.0021955822122629227,0.0006154996076989414,0.0016555761024134633
0.18666666666666668,0.0057549034196466555,-0.0009798726456608652,84.37675604260934,-0.00012723795609957973,0.0011927031092953445,0.0012496949413227214
0.19,0.005172707669932419,0.00565108201320346,84.3699916635234,0.0016082847152480606,-0.000551030858953738,0.000368488566851335
0.19333333333333336,0.01747048456278418,-0.015088149265668708,84.365401531924,0.00239668616468332,0.0033992171320580186,-0.0002401582317379582
0.19666666666666668,0.0009583442567195555,-0.009123608063329338,84.35474410979394,0.0004850344765706876,0.002074415438063271,0.0005532583063109914
0.2,0.001876969746391878,0.0020131586265079806,84.35661043877994,0.002710003657923137,0.001633600097570722,0.0037256065409664836
0.20333333333333334,-0.010915299623158356,-0.00728569029078931,84.3458345365651,-0.0008672013113796517,0.00014519687543947633,-0.0005121235467469762
0.2066666666666667,0.0031617773559483955,0.0049972198119683986,84.3623494835989,0.002519760213186208,-0.000892055286835856,0.00025532991652927977
0.21,-0.0011750377086414163,-0.008932425450945752,84.38543258459217,-0.0010713880914688058,0.0008456883433950156,-0.0008879608346049222
0.21333333333333335,0.00738363260183186,0.004155311535615833,84.38599018494698,0.0008688430250135764,-0.001995448211406502,0.003384210439397239
0.21666666666666667,-0.0008113371888645156,0.00230296412402545,84.40243858795101,-0.0012383513681353694,0.00036083524837926144,-0.0011004569349268478
0.22,-0.00441894165750532,-0.0007656227091752492,84.41355324028594,-0.0006802188975622921,0.002769639694428277,0.0016995685669503227
0.22333333333333336,0.0004807078253223234,0.001589278087988358,84.42554253129305,-0.001096219032678852,0.003485739552591938,0.0029368126045123985
0.22666666666666668,0.004475387813814285,0.001439012264628306,84.4387974516817,-0.0005937152143305778,-0.0014164099827177483,0.0019357279022098714
0.23,0.0013313034631619407,-0.003664899138028738,84.46278126405643,0.00439978831336744,0.00032154470960309004,0.0027776062385176416
0.23333333333333334,-0.005368393542269684,0.0018675861781205477,84.46302110388052,0.0011444070008261047,-0.002063364785685559,0.003083621163599393
0.2366666666666667,-0.004675923426969386,-0.009341417522746562,84.49369109733837,0.001972875784793139,0.0020998757281933712,-0.0005169429797703897
0.24,0.007814549192151103,-0.008064903566050222,84.50035906044621,0.0011828397742260064,-0.00014360064841343085,0.0015868769879312694
0.24333333333333335,-0.0019546358789443914,0.0075975001592500455,84.51847742710532,0.00012646954446268095,0.0010130583303778037,-0.0019335864267862749
0.24666666666666667,0.0037223172729756353,0.001167604956986405,84.52872784885037,0.0006012508842447164,-0.0027328765215574122,-0.00047570843410820596
0.25,-0.00873175653409559,0.009315064970917709,84.54973003765461,0.0011986751407009075,-0.0011121569066659118,0.0019004981019029382
0.25333333333333335,0.00741964016743761,-0.002741928094439617,84.54805682038217,-0.0006576416382561517,0.0010343163130638348,-0.0014901326697615513
0.2566666666666667,-0.005257762306441731,-0.002246836502531673,84.56979828722804,-0.0005681014344171359,0.0010512143795579473,0.0014802557311054617
0.26,-0.006450230934926752,0.005092084293465954,84.5876987610172,0.0009784598093323616,0.001602371822676678,-0.0012995621389742659
0.26333333333333336,-0.0022127100864304684,-0.004430369486784875,84.6236719672155,0.0005608265967475384,0.0016186680818699082,0.0006587238344872925
0.26666666666666666,0.0033829634418463634,0.0046526112151719385,84.69083090961864,-0.002734794848757468,0.0014364894275016445,-0.0008347474225772812
0.27,-0.007707562667812125,0.00199128608519039,84.72458119246397,0.001416372384921532,-0.001576580093370825,0.00040361615220534363
0.2733333333333334,0.003920398194569249,0.0017323629227779325,84.78100535342058,0.004229287159148998,0.003444282014221772,0.0009871522430263061
0.27666666666666667,-0.005150525830204067,-0.008921731465603395,84.82562301636563,0.0021013825620443834,0.001653090078929123,-0.0010496935881762657
0.28,-0.0015239646764788999,0.0016620101820188856,84.86815276068201,-0.00012165017672080557,2.088072247209551e-05,-0.0014852572403455796
0.2833333333333333,-0.0060912590877836075,-0.0018146755812519638,84.92512019011686,-0.0025750482665070707,-0.0004778837785874396,-0.000324427460044926
0.2866666666666667,-0.002689666580722257,-0.0019615753769480883,84.97715195205413,-0.0011571176554882254,0.0025821714568853827,0.0020648291468620982
0.29,0.008057064944182547,-0.006514588248860891,85.02416608736354,0.0018201749976939836,-0.0039314869116980865,0.001411254191180286
0.29333333333333333,-0.0004900375212397778,-0.01113891431829912,85.08314871448218,-0.002078278629715568,0.0045455763294698776,-9.174654754462193e-05
0.2966666666666667,0.00041553805790757854,0.0026014587606036474,85.12895565854579,-0.00012741025910408487,-0.0020566577104900014,-9.589615771445345e-05
0.3,-0.002733229866646238,-0.0007301531720976834,85.18004006453165,0.0016903163946145293,-0.0036464628978768294,-0.0007550754593124335
0.30333333333333334,-0.005434437291428406,-0.0038456034780480894,85.2295425095767,0.0015909283674578518,0.00043873859158939714,-0.003016583862262318
0.3066666666666667,-0.002332314100428597,0.0002499925501629564,85.27667301903503,-6.725821381505386e-05,-0.0010920355341411184,-9.519043398592452e-05
0.31,0.0038771814944413697,0.005035458340325392,85.32112008787752,0.0034680666368994873,8.582393093039409e-05,-0.0016698476106729299
0.31333333333333335,0.004033623849367369,0.008247417764706779,85.3734199748622,-0.0005629767232034302,0.0020950432334569335,0.0013820227317496003
0.3166666666666667,-0.005820481831947619,0.006519200419617441,85.42880161163319,-0.000827948512793113,0.0005732781880586545,-0.00044502336502723143
0.32,0.002666393060529837,-0.000511040421082057,85.47245826922432,0.0015913996467914724,-0.00039747681931752026,0.00158153820586513
0.32333333333333336,0.0025354973379211445,0.01398001350176595,85.5244576579854,0.0008627085281080609,0.001128673493133998,5.569618816174807e-05
0.32666666666666666,0.006294205854608356,0.0077525150794478725,85.56408226595929,0.0015329546487040779,-0.0010929100720543173,0.0018054204904866178
0.33,0.25408853618158816,0.1476432599216015,85.60982256161576,0.0015550529628823972,-0.0016437070380787907,0.0013962961659922096
0.33333333333333337,0.2609845895929025,0.1455890924374049,85.65334941624167,0.0002228078816235933,-0.002197967460087296,-0.002366515792738434
0.33666666666666667,0.2570297515911251,0.1474376431684634,85.70780665335533,0.00027426431594876745,-0.0039675418763718525,-0.0011901756792170074
0.34,0.2640375763621831,0.1626894142104738,85.75826753804496,-0.00311140869439729,-0.00528876333192329,-0.005109333586728591
0.3433333333333334,0.266609821050397,0.16094864399640085,85.78974943505466,0.0021165699363173206,-0.006595993633380805,-0.0002932080303016027
0.3466666666666667,0.26395524125867154,0.16750500722837453,85.83535100877936,0.0021123637789002576,-0.008108330421158237,0.003604663171267097
0.35000000000000003,0.2667598293877169,0.16501371165281206,85.86405420174208,0.0009956953047725592,-0.010558261262638166,-0.00040790140203394504
0.35333333333333333,0.26808722698888793,0.1629623154364954,85.90281728377933,0.001770659840739824,-0.008054311712087198,-0.0015272316348615529
0.3566666666666667,0.2738717261945911,0.15765260685821617,85.92802030022573,0.004709701380613782,-0.013278382761910455,-0.001331059282869317
0.36,0.270608539359422,0.16803655042354884,85.97270625702825,0.00303204159580419,-0.01486990957297573,-0.0021455929669396256
0.36333333333333334,0.267308211537068,0.16307837047696958,86.00264218453279,0.005369009745523347,-0.01784130644614807,-0.001250334078617389
0.3666666666666667,0.2770800947058591,0.16874626442638227,86.05077506264024,0.005281767329803786,-0.01920523473980782,-0.0013342091920019385
0.37,0.27035747916160674,0.17132580354228658,86.09330024356252,0.0035819306917519765,-0.01668629060835702,-0.0014764199679218309
0.37333333333333335,0.2706852573668541,0.1749133937089175,86.13406945681074,0.002344251204031758,-0.01792057916794825,-0.0007028247188183957
0.3766666666666667,0.2861804636991948,0.17163843932404868,86.17378677170039,0.00889720467386158,-0.02066865733353675,-0.0013859072249269276
0.38,0.2841184232697504,0.17835274519399755,86.20235916680694,0.005431101770917654,-0.02139164831083605,-0.002664640157543839
0.38333333333333336,0.27308022708811314,0.16721899082301306,86.26863157639677,0.004284398583986299,-0.023304176354295884,-0.0011163703202564915
0.3866666666666667,0.2878105272373529,0.16980384188765194,86.31532537610529,0.004903889702418057,-0.02408843013479364,0.0005764591668596082
0.39,0.27396792949107585,0.1717522719292007,86.36146464045015,0.008427221356810071,-0.02704589701785637,0.0006481648538288534
0.39333333333333337,0.27279514030565993,0.16894783507405237,86.41077840429672,0.006961832436476152,-0.028090064939687683,0.0007538110604773833
0.39666666666666667,0.2761275272640957,0.1760245046095327,86.46043370118119,0.008565282161639733,-0.030953812205501575,0.00023970499042578173
0.4,0.2760430373256918,0.16734675263066084,86.5262955694685,0.006544150785727587,-0.03533440952427312,0.006098857209565763
0.4033333333333334,0.27950800251717756,0.17136365335023904,86.61916655197845,0.006631496628923898,-0.03168682830691765,-0.0012776370671501156
0.4066666666666667,0.28174722755205295,0.1699572700191494,86.73320854181092,0.00898428802701247,-0.038105526543860804,-0.0004884816781709735
0.41000000000000003,0.28192791716212157,0.18636922838387965,86.84826856653652,0.0077267334535844265,-0.03784245739418149,-0.0002514064584344303
0.4133333333333334,0.27530892773563115,0.16512139008464596,86.97398390144278,0.005907169097681451,-0.03893276968477535,0.00019422714152643857
0.4166666666666667,0.2689752760741096,0.18258217170849012,87.08362762366279,0.006537909935002891,-0.0366647294234567,0.0020548274115214328
0.42,0.2735286666306822,0.1656954374826561,87.19403863144638,0.011624418021161353,-0.04351710296066235,-0.0005927935542392694
0.42333333333333334,0.27578287821434194,0.18032378328749754,87.26056713413396,0.005810000900738676,-0.04381905866342021,0.0008658618198575748
0.4266666666666667,0.26876790899022923,0.17817602244008782,87.29088688292408,0.012283211625115555,-0.044495045249825026,-0.002796068211564926
0.43,0.27083583142721657,0.16954399686972696,87.33504474459201,0.010643442760329563,-0.045222563947744404,0.0005158649646417791
0.43333333333333335,0.26060728912098424,0.17251928879550094,87.37223675345936,0.010864735641237537,-0.04814608088103158,0.000596301488598942
0.4366666666666667,0.269791947489351,0.1755654624467323,87.40643206522509,0.009906884466096466,-0.05175405241609781,-0.0010612263513716741
0.44,0.2628975697222856,0.1684019675283344,87.44162544872269,0.009570421501240864,-0.05106426163364627,0.0005190336539825837
0.44333333333333336,0.2604611256843267,0.16933007299462782,87.49531627245382,0.011220772919893273,-0.05460094628945949,0.0023470413074521074
0.4466666666666667,0.2627116166694171,0.17675670343127028,87.55834048163096,0.014218254721944056,-0.0554629866859987,-0.001572028184329541
0.45,0.2501376301056124,0.1719880079963474,87.61482679396786,0.012650750885549041,-0.0548666741291432,-0.0021878414419439426
0.45333333333333337,0.25488205772533745,0.16356123470969114,87.66452608659137,0.010535365129897079,-0.06165556128507071,0.0023360779639039152
0.4566666666666667,0.2496022796799883,0.16629319852158123,87.71384845008349,0.010318154191787965,-0.059761139657990896,-0.00011073905632219456
0.46,0.24268499238801433,0.1719813888115212,87.77767115768704,0.011233735723842557,-0.05962861978029387,-0.0026402042354674174
0.4633333333333334,0.24288581178706897,0.16794533762246122,87.81484518118204,0.012673184417206437,-0.06279521082811405,-0.0028519835462291025
0.4666666666666667,0.2522669063232208,0.16720975134518487,87.85945495767228,0.013738651014817603,-0.06423900814095891,-0.0032699992624362043
0.47000000000000003,0.2421508095999941,0.1601652487605184,87.88346914357648,0.015305104581538505,-0.06488616283020622,0.0024304305334454366
0.4733333333333334,0.22666509563821732,0.15666051006437628,87.9378691865599,0.014881222876902325,-0.06852683586350566,-0.0006505065290532218
0.4766666666666667,0.2203683879104989,0.17914808285969908,87.97349989596391,0.012190487390308691,-0.07143775263883193,-0.0028242104014512778
0.48,0.21289820376507115,0.15420997242225506,87.98947506084467,0.014504246598047423,-0.07073960474858974,-0.0026531180835058237
0.48333333333333334,0.21659571443488246,0.15718717721870115,87.98713088606172,0.013779122748596703,-0.07309851811139732,0.002877353134871777
0.4866666666666667,0.21334697214222062,0.15800700673128493,87.95475899173233,0.01446477423885627,-0.0726868606390792,-0.00029312371595789866
0.49,0.2073650858216382,0.1680884766079492,87.92956587080349,0.016872957957838924,-0.0761351829614314,-0.001093841572381163
0.49333333333333335,0.20783341435326583,0.1470831747641309,87.90942958594867,0.015878964940736685,-0.07756050972958584,0.0010720055262150212
0.4966666666666667,0.19477014949614102,0.15637998691949034,87.88694421072469,0.019166237571846878,-0.07964609933563511,0.001931650462203212
0.5,0.19414959493028736,0.15435561617664717,87.85647576483245,0.017450996277713123,-0.08199927868454854,0.0024346998163764016
0.5033333333333334,0.18433483496352046,0.14692123680746902,87.9185804923011,0.01812550511918772,-0.08102597974108738,0.00239903290755887
0.5066666666666667,0.18580892437325852,0.13687916367611275,87.99070589300067,0.015907163791536637,-0.08699653220636085,-0.0007226657538090681
0.51,0.16157029040866416,0.13867350828241956,88.06392409647674,0.0183196052360419,-0.08933366061424883,0.003544145296968952
0.5133333333333334,0.15911350648917894,0.1387797121452989,88.15071946772412,0.017815198582532842,-0.08894439525622223,0.003474646680691121
0.5166666666666667,0.16036770587878993,0.1381193639379414,88.22778377968187,0.018434135247912285,-0.08957926713016548,-0.0009317226520685946
0.52,0.1475203420272509,0.1406232008773424,88.30202191774826,0.01902660741317683,-0.09068458882945249,-0.0030883467667421876
0.5233333333333333,0.1390602882582133,0.13175484552700126,88.37311770136304,0.01640862760220612,-0.09127589279902125,0.0024541292374818716
0.5266666666666667,0.135063147695151,0.129243808391027,88.43180437906946,0.018425374712323302,-0.09442533428029372,0.000447860947069094
0.53,0.12049856058329217,0.132932313412877,88.51251002551605,0.021306572352376263,-0.09172414887662167,0.0013462924405944524
0.5333333333333333,0.11298991261621401,0.1154165091385206,88.58534121932911,0.01804058359703606,-0.09442415359291187,0.004786813129713085
0.5366666666666667,0.111437013768494,0.12049305191339948,88.63677701144,0.01702743020119896,-0.09890400884555596,-0.00229755445672295
0.54,0.09517152708330219,0.11775803380404475,88.71466450362571,0.019208014973374533,-0.09868146594656635,-0.001166997133059615
0.5433333333333333,0.08563632559793817,0.1159786216689794,88.79382521727418,0.021821551552672944,-0.099034290422438,-0.0001810143659420102
0.5466666666666667,0.08399621189374686,0.10057101156696094,88.87612057944916,0.019666601086719113,-0.10266361607719106,-2.4485278811461874e-05
0.55,0.06814723494877213,0.11117856172516415,88.95306113692665,0.019911087077848118,-0.10158212481073789,-0.0019963346668779953
0.5533333333333333,0.06879344114227122,0.10414778638318013,89.04673225090352,0.020185327614840376,-0.10475197717511552,-0.0009023626184848645
0.5566666666666668,0.0496122713665207,0.09832283733405661,89.11989926441963,0.02014583596244601,-0.10642027264838166,-0.001165006521790981
0.56,0.04202764427671028,0.10006308433620065,89.19851154627806,0.022483697218459733,-0.10631115878369081,-0.00046753534124507526
0.5633333333333334,0.02796382676687414,0.10039997860104188,89.2733558658205,0.022956573048939593,-0.10858588815874794,-0.0020217978507111344
0.5666666666666667,0.012930170554142018,0.08780338645598132,89.34120781078012,0.02095516680136783,-0.10962813158801128,-0.001015121836067731
0.5700000000000001,0.013045355070263304,0.0840296588883765,89.41389780362337,0.02111699228800484,-0.11350541947260089,0.0001499097114081244
0.5733333333333334,-0.001270494684434219,0.07870883663028977,89.46951283507558,0.021097046824218913,-0.11513661209948654,0.0022043221563377894
0.5766666666666667,-0.011728392760823944,0.08216805455308682,89.53578576989462,0.025151494555927276,-0.11112387397505537,-0.0015033191828982724
0.58,-0.029905177673771172,0.06879970877855632,89.6059595508502,0.024117127961760524,-0.11373554705097058,-0.002436982754539621
0.5833333333333334,-0.04632479606332835,0.07164124996152262,89.663380724114,0.024411530708830582,-0.11384720371076806,-0.00034902837796137344
0.5866666666666667,-0.057537738707782574,0.06134141183019431,89.7249616722327,0.02298732557708207,-0.12079684214866156,0.0022482698511451815
0.59,-0.07042001179960491,0.05037009795812843,89.77525097802773,0.022184465161561657,-0.11863994210924343,-0.0009052635669138165
0.5933333333333334,-0.08092902958183279,0.05836518139997194,89.83143333905372,0.023921771230381472,-0.11849004876209225,0.003714730594659117
0.5966666666666667,-0.08867575417568029,0.04831248034257481,89.88842226933897,0.02311239379897293,-0.1195140269171812,-0.0008239614465668539
0.6,-0.10618890809780458,0.04419312319174871,89.92152890733769,0.022235761878071164,-0.12097978670280547,-0.0009571252769231319
0.6033333333333334,-0.11874769170727822,0.037808233952530614,89.97932203386355,0.024291491001992235,-0.12282144289898099,0.0005707286222948986
0.6066666666666667,-0.13182602382945227,0.02596296791823835,90.02960671001172,0.02688910072577362,-0.12324139656660091,0.002630476076090359
0.61,-0.14067376776045043,0.02768301580921514,90.07986593865677,0.024137819449012447,-0.12089826766128266,-0.0006967661977474726
0.6133333333333334,-0.16639092807345304,0.017697733530062047,90.11199925784264,0.025185145930901758,-0.12599778254917599,-0.0008970211488241925
0.6166666666666667,-0.17400296205448995,0.012636090100862564,90.18150150051486,0.02439537575316591,-0.1267048428495369,0.0020686499354544705
0.62,-0.1982916995374132,0.012425234068319822,90.22024271408611,0.023407498270259026,-0.12544653503381908,-0.0014842277606133584
0.6233333333333334,-0.19975938891770376,-0.0017262698466900964,90.28100029864974,0.025094446009746106,-0.12656098401513088,0.00045324860015253835
0.6266666666666667,-0.2164498358601843,-0.010144329026063909,90.34488462319472,0.026048268279419667,-0.12674960642710537,-0.00024919649027099517
0.63,-0.24113894135433672,-0.01044460699533211,90.4136834031394,0.02435234113140904,-0.12699838586466813,0.0013736125806574561
0.6333333333333334,-0.24806137200244993,-0.017089680449657866,90.46114325986544,0.022504556622189167,-0.1288319437102031,0.0019488375670701295
0.6366666666666667,-0.26666024583712367,-0.019341082884509402,90.53844072057744,0.025175188916635883,-0.1277313856392134,0.0025473635504108254
0.64,-0.2861320863744756,-0.029150770787690905,90.59523917278216,0.026092598968867717,-0.12971741988474403,-0.0015611523479282796
0.6433333333333334,-0.30146186315788176,-0.043182211754108434,90.66936088441315,0.026795796695030967,-0.12922281490751708,0.0004747406828163502
0.6466666666666667,-0.318459935544215,-0.042570090821178255,90.760995394538,0.027651660261243775,-0.12845566854210563,0.003087339294127655
0.65,-0.33104269468509967,-0.04552724120918197,90.84669633018501,0.02544210362778398,-0.12853394763130924,4.2440390805527635e-05
0.6533333333333333,-0.3508366616162623,-0.05371081076968866,90.93518212555996,0.026097928929202586,-0.1272366435075042,0.0005626623017243291
0.6566666666666667,-0.3651675937694854,-0.05689244847601827,91.02172472621729,0.02568428456190908,-0.13445215159496518,-0.0017314819717354237
0.66,-0.38620902009013236,-0.06600402779157667,91.10415059073833,0.023809404640801144,-0.13060826614907015,0.0006038344135308059
0.6633333333333333,-0.4047817024149438,-0.07533044495671962,91.20929195812965,0.022548002626377968,-0.12773747064960347,0.0008779694552487082
0.6666666666666667,-0.40969709747071714,-0.07838270316467824,91.30587716735586,0.02519615707335818,-0.13166954405344158,0.0029901558543296057
0.67,-0.43748656555316856,-0.09149089603648576,91.39515660432534,0.027984204905999795,-0.1320061754788944,-0.0007616200478900806
0.6733333333333333,-0.4584657524946837,-0.10269722149368198,91.49662228222638,0.031249642314525625,-0.12971647769842107,-0.0014642759301616358
0.6766666666666667,-0.46860326802056307,-0.10469232433070551,91.59438389246107,0.024402506386745085,-0.13077335582921618,0.0002759178081489184
0.68,-0.4963667910028684,-0.1127393761061942,91.68621674790268,0.02552255693560542,-0.12892011269574002,1.569657632680644e-06
0.6833333333333333,-0.5102445357016144,-0.11920997206265757,91.80222424912529,0.02596026169400521,-0.1319095987360241,0.0014574049194679179
0.6866666666666668,-0.5272438226386589,-0.12200746843690763,91.90582467275603,0.024489868421799375,-0.13006879244920702,-0.00035321820710633016
0.6900000000000001,-0.544661881640785,-0.13802180399896083,92.02954208181353,0.02286634054406985,-0.12893022845309765,-0.001432635577718833
0.6933333333333334,-0.5543898652565807,-0.14421821972628604,92.12746054816702,0.02487642912086611,-0.13070707875254278,-0.0014206146829646605
0.6966666666666667,-0.5751839789747787,-0.14691494434398103,92.24193244116947,0.02649330427907256,-0.1316208425778294,0.0011645286786789715
0.7000000000000001,-0.6027686630347597,-0.15024145575671455,92.3599323760281,0.02643448437250354,-0.12671555720088332,-0.003293235094249412
0.7033333333333334,-0.6277904666358927,-0.16297563797815515,92.4777422823303,0.022602182044424532,-0.12799400757817453,0.0014685514066788048
0.7066666666666667,-0.6383204186498814,-0.16995662122363697,92.60717163593915,0.02612542982339919,-0.12855002707542923,0.0025884467853224753
0.71,-0.6565877336828537,-0.1760831250143948,92.73219876900545,0.023862040447578482,-0.12485022938176493,0.0040490201678971645
0.7133333333333334,-0.6682319691120147,-0.19230748830433858,92.85400208507704,0.026800989828668506,-0.12503899324231277,0.0011459784494395394
0.7166666666666667,-0.6831377170866075,-0.19179981496286871,92.97452997537711,0.025251010855808206,-0.1255675696461962,0.0021745800072086405
0.72,-0.7050526533822443,-0.20639280623786627,93.0899381918304,0.02456276119735044,-0.12627086952315475,-0.0007913253361945528
0.7233333333333334,-0.7371035751320507,-0.20998456587847375,93.22887481326839,0.022440319224868853,-0.12430585501211762,0.0004997446020654346
0.7266666666666667,-0.7467667106664175,-0.2130717901325531,93.35690791095075,0.023706919464269623,-0.12282472384585526,-0.0013747495792888658
0.73,-0.7687747806352013,-0.22446368469911082,93.48129506048942,0.02083462523102892,-0.12379730051710434,-0.00042013447138687535
0.7333333333333334,-0.7779239543890282,-0.23481202205732826,93.62442604171133,0.024843112652091152,-0.12264968654265185,0.0010375343543204552
0.7366666666666667,-0.8010563510608948,-0.24146610595919388,93.75075990814399,0.022180578662975504,-0.12306001197400301,-0.0005599340467042402
0.74,-0.8193476960873471,-0.24784401702983658,93.89383973848209,0.022888880496121183,-0.11954548669458172,-0.003297362854904571
0.7433333333333334,-0.8351890951836708,-0.25558038101107733,94.0246357373173,0.02124387469310352,-0.12251456254495631,-0.0008357055047368264
0.7466666666666667,-0.8539504387427219,-0.2722171525390651,94.16080420501159,0.025794474403345435,-0.11789361883961716,-0.002113201467299538
0.75,-0.8758792154880237,-0.2786012356850898,94.30719531296126,0.022571994223105137,-0.11609003514778,0.0008322781928794468
0.7533333333333334,-0.9038628377809036,-0.2776531665810159,94.43526560428775,0.020681627262994426,-0.11157930688908765,0.002767749186313145
0.7566666666666667,-0.9084758752212143,-0.28985673703598336,94.58823788617916,0.01968910753378503,-0.11615988271962613,0.002546980606042119
0.76,-0.9303494863414374,-0.29908765185231706,94.72661629562367,0.02365702554239878,-0.11346061366705353,-0.000204319573211
0.7633333333333334,-0.9464195866403984,-0.3120083603905464,94.86032728653319,0.01912093159711891,-0.11006093139748337,0.0023066362004888403
0.7666666666666667,-0.9613074050914364,-0.3028164608191549,95.00124902222912,0.01752438182568002,-0.10824481295264571,0.0016757198858626762
0.77,-0.9855231972302262,-0.32799350893894724,95.1362415042637,0.020080086383721343,-0.1094961606675462,-0.0004404980418392632
0.7733333333333334,-0.9973238841701318,-0.3200784965912201,95.27583936080109,0.01688888699087262,-0.11079559671491723,-0.0019834590083147646
0.7766666666666667,-1.0185600648166924,-0.33138394027019796,95.41021772083121,0.016981223417313875,-0.10251349200630394,0.00047947652600882694
0.78,-1.036335733742,-0.33832369066855256,95.55380460947744,0.01720336811956952,-0.10197974568288673,-0.0009062953106647279
0.7833333333333334,-1.0583195839034722,-0.3532890214334808,95.68583271945624,0.018772072191026723,-0.10083471349972792,0.00027499565847344655
0.7866666666666667,-1.0778400998839865,-0.36115930518992967,95.82628997857766,0.016869449870938892,-0.10003597159755262,-0.0018305662971303358
0.79,-1.0820013098050727,-0.35945820931062256,95.95056256895727,0.019933697146636092,-0.09662113642118186,-0.0027386404452728547
0.7933333333333333,-1.1098243956223328,-0.3711873702605924,96.07855854136396,0.014379197114519475,-0.09544982764540283,0.0008196412797950261
0.7966666666666667,-1.120813143554859,-0.3895329027980969,96.22151800801552,0.02059911549923618,-0.09536049579846644,0.0002596874240753084
0.8,-1.1360932932727608,-0.37506369571931236,96.35474386606798,0.01484953979449059,-0.09197518902941768,0.0003173208992521028
0.8033333333333333,-1.1596283692070313,-0.3898206214663213,96.47400788304185,0.013564273780369687,-0.09031129346955025,0.001963468069430651
0.8066666666666668,-1.1656667193242132,-0.39457540971476335,96.58336946917228,0.012584927051517593,-0.08528757141011087,-0.0021667114524500796
0.81,-1.1893149609055143,-0.39335865516322843,96.69505136717855,0.017072541527991692,-0.0851430507533971,0.0004637642655284183
0.8133333333333334,-1.208168487642507,-0.40768399419617507,96.81843686130325,0.015077365107294781,-0.08235476415627074,0.0007158013438659806
0.8166666666666668,-1.2151724214845185,-0.4001239668319516,96.92431242766483,0.013045846083117214,-0.08085808993807321,-0.0012910022824454209
0.8200000000000001,-1.227929280682649,-0.41519532919015967,97.04167542813039,0.01090888203282693,-0.07736833154014171,0.00029109169036198036
0.8233333333333334,-1.2429898722494566,-0.4257361750023232,97.13632242338127,0.012428675734498944,-0.07568328510884925,0.0025635530422317876
0.8266666666666668,-1.2548186186718526,-0.43191316581891626,97.24032058669069,0.00855983180033763,-0.07364662824977654,-0.0021695366301719234
0.8300000000000001,-1.2718685818853683,-0.43489827232413836,97.32678714068807,0.011580031684455165,-0.07123283661818249,-0.0006741339248865041
0.8333333333333334,-1.284298244965268,-0.4408164260697347,97.42829042273205,0.012335216913189232,-0.06919737791268976,0.00024888559018963107
0.8366666666666667,-1.2908573572335074,-0.4370942954989594,97.52203345117243,0.008491471247680805,-0.06282299291495828,0.001027112309566509
0.84,-1.3105843676281075,-0.4445513482768694,97.61802321511296,0.00790653283228695,-0.06477657690235085,0.00023913895578348406
0.8433333333333334,-1.3231940681398056,-0.4540224866873079,97.69651746350911,0.010612216028491462,-0.061068706468366055,-4.088668648854074e-05
0.8466666666666667,-1.3342357806910492,-0.4471394606759168,97.7964553304508,0.009329571177849756,-0.05705370875718583,8.79358558986747e-05
0.85,-1.3449275552246278,-0.46296165239050924,97.87047383506095,0.004872120772499233,-0.057102801540752805,-5.636637713327251e-05
0.8533333333333334,-1.349894268247278,-0.45642110072532094,97.94001217761956,0.008340382485424302,-0.0505627763775976,0.0016980647146307194
0.8566666666666667,-1.3550650323192963,-0.46122353896010154,98.03248081686671,0.007929118122832778,-0.04958697526914786,-0.0007080091901115767
0.86,-1.3682470349554032,-0.4721916906654835,98.11050500255239,0.008316797169148125,-0.046282984338278994,-0.0027637950820671013
0.8633333333333334,-1.3795011235462449,-0.4770475777685578,98.18956261370862,0.006878412950547376,-0.04643813258098334,0.0027102479597529653
0.8666666666666667,-1.3798378446616686,-0.47639744500614445,98.26429474994141,0.007095161732549968,-0.042957573718518584,0.0012128927312838778
0.87,-1.3876415245518887,-0.4751580672424721,98.34073750651339,0.0060219078332307925,-0.03948014776757567,-0.0029233580738306946
0.8733333333333334,-1.3974853259919757,-0.47424809780527094,98.39458188944428,0.005091757937752653,-0.03511841165317267,-0.0019810813029853885
0.8766666666666667,-1.393404379228047,-0.4816846277725908,98.4759138252757,0.0029390502781141783,-0.03199395223611537,0.0036503914737102128
0.88,-1.401383139688332,-0.48373296552340794,98.54168314147744,0.0018860907887000814,-0.0310680145383414,0.001624334799704766
0.8833333333333334,-1.4194382572190203,-0.4900917059022506,98.6338815228483,0.0066567640778037555,-0.031281736524676265,0.000339225831705334
0.8866666666666667,-1.4193220363719892,-0.47662699320844587,98.70557086786363,0.00025634382805242136,-0.02958894506278915,-0.0002007793705447799
0.89,-1.4195994019642382,-0.4833141884642994,98.7678867451519,0.00047900530935067096,-0.023882796611357393,0.002293864109940512
0.8933333333333334,-1.4203109229079343,-0.4807832654785934,98.8478509694862,0.0029227007028247124,-0.0233370515906981,-0.0029608073412415717
0.8966666666666667,-1.4369690176300955,-0.4840177254738714,98.91179330444143,0.002333192389534584,-0.015038140960447179,0.001335762427036781
0.9,-1.435985096878504,-0.4805824201177334,98.98636699822958,-0.0018461946696479424,-0.015664383398013168,-0.00014654995912136384
0.9033333333333334,-1.431568159552901,-0.4848505858789599,99.06516182035828,0.0003357272511950495,-0.011642800324315796,0.0025751253673767663
0.9066666666666667,-1.425585106875146,-0.4853031678428222,99.14855586913946,0.0005084751456323914,-0.007599047054059707,0.002290229979607296
0.91,-1.4296080733300514,-0.48335251502581333,99.21603349709773,-0.00048410151642945206,-0.007781559579845778,0.0005682711949078165
0.9133333333333334,-1.431985197747201,-0.4893423306918036,99.30034283082631,0.0014387067337847399,-0.004639300175979964,0.0008382242034824361
0.9166666666666667,-1.4317492810030643,-0.48439292552970137,99.374029601267,-0.0017148998281194578,-0.0015333980681993056,-0.0008651012186980093
0.92,-1.4309580326503168,-0.4736514420875855,99.4462786885482,3.3116907314211744e-05,0.0037359421042597683,-0.0004746607096598677
0.9233333333333333,-1.4254771749283524,-0.4702695685014772,99.52500743942164,-0.00307774883298779,0.006297054165761798,0.0033498525154897958
0.9266666666666667,-1.4167277187632905,-0.47162646285320814,99.58312672220119,-0.003859963743921621,0.008390517320795515,0.0004877145156780266
0.93,-1.422375537831971,-0.47629562617765764,99.66101786957348,-0.002838238679390344,0.008920194806803354,-0.0009703996623400975
0.9333333333333333,-1.4320219013470228,-0.4676266481694113,99.73754968921175,-0.0037705380486043527,0.013006713564444803,-0.001892053849860265
0.9366666666666668,-1.4115002582558598,-0.4641239070800731,99.81070901350131,-0.005905687771930421,0.014028535628231172,-0.0016227258217578336
0.9400000000000001,-1.4038218290135045,-0.460431179036565,99.87799568397043,-0.005214562293986794,0.01727658839671986,-0.002002943457413428
0.9433333333333334,-1.4072915680478169,-0.4556235499708201,99.94430454559773,-0.004380979958371749,0.019491872238352706,-7.613125190715645e-05
0.9466666666666668,-1.3979788110160605,-0.4573109447019421,100.00661652599216,-0.008938479358955356,0.025555381217525003,-0.0002447981136363873
0.9500000000000001,-1.388381822081388,-0.44434352428307144,100.0634595607992,-0.010692774430943552,0.027268159855749905,-6.611633024769252e-05
0.9533333333333334,-1.3811523785714859,-0.43489187399877044,100.13544121733318,-0.006135087284358848,0.027348289460940256,-0.0013045062336426289
0.9566666666666668,-1.3762359011396506,-0.4348031895665918,100.19294658400939,-0.006988866633828372,0.031132798389781793,0.0013412040942669446
0.96,-1.3609878261603445,-0.4243654402743497,100.25651494805084,-0.007610770883068574,0.03134012364099125,-0.0008787005740300955
0.9633333333333334,-1.360616789058424,-0.4289844548445318,100.30263448249488,-0.007507357608257324,0.0346372719731944,-0.0011632373870090545
0.9666666666666667,-1.3398119601133132,-0.4084264146406242,100.34494582665779,-0.009787164267140628,0.03793485445340903,-0.0013204847416951422
0.97,-1.3339334534597442,-0.4066980545327263,100.39666001631599,-0.010325084561075828,0.03608057883460004,-0.0012562995585024715
0.9733333333333334,-1.3167515497440723,-0.40358275733609694,100.4402195926711,-0.013564337320804648,0.040966292403031984,0.002262691475341484
0.9766666666666667,-1.3022664315985562,-0.3832810783760588,100.47036496211314,-0.013658223569952638,0.043849402322432375,0.002816691122079922
0.98,-1.2925177696134353,-0.38172368542100743,100.53149590713797,-0.011787235892246447,0.04305338118542209,0.0028435484359788064
0.9833333333333334,-1.283555333292872,-0.3740213676688732,100.56046984000245,-0.012863729770583426,0.04624387169190088,-0.00022729132572269994
0.9866666666666667,-1.2648710987519793,-0.3699042826473255,100.59993187606563,-0.00869994702913183,0.0508700737673229,-0.00014700657427528933
0.99,-1.2473884489565812,-0.36036055915760923,100.62028150489334,-0.014942010017819496,0.05026426024135241,0.0007740447566362981
0.9933333333333334,-1.2322640356078054,-0.35245830962626185,100.64227322807413,-0.015216268162915483,0.05337830515470418,-0.001310153522635402
0.9966666666666667,-1.2177909508548286,-0.3398459787990271,100.66477210694904,-0.0106471883090661,0.05179448293581514,0.0014743765720078674
1.0,-1.202221739854743,-0.3247452901130379,100.6961799823946,-0.013679367719343426,0.05527025130116199,0.0010047323486375073
1.0033333333333334,-1.1889046797597715,-0.33277116827638226,100.71643001306457,-0.014904750747798737,0.054319329340783616,-0.002825372579549505
1.0066666666666668,-1.163935266926265,-0.31615152492581144,100.73075825147122,-0.012883409829179824,0.057231465780731454,0.000687082568463231
1.01,-1.1529117897023815,-0.3108511241640229,100.73530707705392,-0.011829843242864442,0.05923411722730173,0.00017221889040306969
1.0133333333333334,-1.1279595201346186,-0.2925705973252166,100.7459766547343,-0.012939897570599209,0.06126759163621214,-0.001632584000187602
1.0166666666666668,-1.1129408138483867,-0.2891057452544264,100.77663593882677,-0.014865066183866855,0.062366132760674424,-9.924320618001202e-06
1.02,-1.0850970568242735,-0.279750683776641,100.79066998457363,-0.015048291180572883,0.06128016576216401,0.00039118408406685947
1.0233333333333334,-1.0696848627067115,-0.27232767202272923,100.79522698626779,-0.015438023071857623,0.06473835193796924,0.0005252482892884188
1.0266666666666668,-1.0515270430501107,-0.25655950456799714,100.82558463205957,-0.015138583007414719,0.06670970324442914,3.837348341566439e-05
1.03,-1.0349197639197503,-0.24191185801619028,100.82939927646086,-0.014255117924745096,0.06363347956102637,0.0005000702646683666
1.0333333333333334,-1.0074733006600147,-0.22671003235244266,100.86053948375968,-0.012298722108888542,0.06756567361595059,0.00301647389289458
1.0366666666666666,-0.9853571716631996,-0.2211888167035145,100.87225338928761,-0.012208057857822262,0.06725429865993528,0.0004770839367291887
1.04,-0.9693698379859248,-0.2134075153676582,100.88307280433597,-0.018102464600221305,0.06909280719134762,-0.00022691031600995178
1.0433333333333334,-0.9512763344958944,-0.20537882974619256,100.89819529405385,-0.015995958961472823,0.06845599850140158,0.0007920915546864939
1.0466666666666666,-0.9269700429083144,-0.18189876408096067,100.92391257372017,-0.016392881265142645,0.07130188639386682,0.004558667515046108
1.05,-0.8997566164085306,-0.17903036274936032,100.93953904094896,-0.013019077196357948,0.06637273870184594,-0.0008558639588797558
1.0533333333333335,-0.88515076600216,-0.1543956846137421,100.96150038427541,-0.014316805545403431,0.07070892686578459,0.0017803450705985826
1.0566666666666666,-0.8558915707994782,-0.15265749885248825,100.99130517250559,-0.014837714844336044,0.06898864323115657,0.000575912931164419
1.06,-0.8330758255419342,-0.14206764169284591,101.01161391318914,-0.015777768470102826,0.06635735791721764,-8.631906816551503e-05
1.0633333333333335,-0.812116002347063,-0.11705232022066207,101.0482559464968,-0.014111241090461999,0.07044711512892131,-0.001195356485439336
1.0666666666666667,-0.793295964461296,-0.11611799094078191,101.0858213759157,-0.013899231944372776,0.07098607290645668,-0.001599078914907655
1.07,-0.765639668837234,-0.10087464743614201,101.12948341248403,-0.015368941125637246,0.06694463613572031,0.002738013164490829
1.0733333333333335,-0.7444874060923671,-0.09424893526324837,101.1536637307718,-0.016128142169809734,0.06941331103465452,-0.00024035590820449204
1.0766666666666667,-0.73147271373023,-0.09244258389709763,101.17916816466504,-0.013533539886944435,0.06835652020903789,-0.001196979878038731
1.08,-0.6967124424769823,-0.07629360692411856,101.22667957061188,-0.013539868552700366,0.06793375717291097,-2.0433195788694118e-05
1.0833333333333335,-0.6621960431456078,-0.06238067067659747,101.26310921302192,-0.01530946011288698,0.0681624345678398,-0.0004228167430273958
1.0866666666666667,-0.6512584160917534,-0.055570122298553425,101.30717484855046,-0.016219488783707374,0.06706414975396698,-0.0015435966281360945
1.09,-0.6328202970003953,-0.03503627258050341,101.35792489556287,-0.015138862842317679,0.06267985494499836,-0.0005399858383905468
1.0933333333333335,-0.6143468229081565,-0.022196513536116264,101.3829587488099,-0.014995084912184818,0.06333447110789507,-0.002163297802267479
1.0966666666666667,-0.5926232304727793,-0.011318906869743376,101.42377954504634,-0.013059588294111801,0.06361638913400151,-0.0005973640887285216
1.1,-0.5730047848996408,6.491000358264248e-05,101.46364751987629,-0.0164164613904038,0.06394089181186026,0.0017794114193749638
1.1033333333333335,-0.5460768234851002,0.011398313322719993,101.50145956836589,-0.012592105471421686,0.06095341344341888,0.001275017364761588
1.1066666666666667,-0.5294682367215926,0.015198488647840768,101.54258464616223,-0.011521937491241219,0.0604527910142522,0.0011039478595923557
1.11,-0.5062422854284205,0.022283183365006537,101.5618967884264,-0.013676822280587553,0.05771193764329575,0.0028741860580237346
1.1133333333333335,-0.4847911734976466,0.03300488033362704,101.6118168479514,-0.01282487054815211,0.05533436948795053,0.0014163689142825662
1.1166666666666667,-0.4614111992513853,0.044343364936030145,101.63406455800025,-0.013946339836032596,0.05395239393913691,-0.0023378614205335274
1.12,-0.44228348435423204,0.05801791856513583,101.67614776856196,-0.009826048529081569,0.052392581613507384,0.0027538482621845654
1.1233333333333333,-0.4234559555850308,0.061076558479138184,101.70646077884561,-0.011809000923935825,0.05151010339118037,-0.0012912544553021603
1.1266666666666667,-0.40745866012845094,0.07844423736524264,101.729274464641,-0.013356445022343837,0.048021199972222844,0.0020567820947324763
1.1300000000000001,-0.38198750073811044,0.07630482310375729,101.76088201478693,-0.009395279242130008,0.046229855470431305,0.003765226293508699
1.1333333333333333,-0.363835159444369,0.0887800932423748,101.79667752522874,-0.011661174331439234,0.04660141924573806,-0.004299284899517491
1.1366666666666667,-0.3648941717870315,0.10189974798366482,101.82189253735778,-0.00971165266958405,0.0426145727136605,0.0002984297341273852
1.1400000000000001,-0.3351999879988414,0.1047798410289098,101.8417825935572,-0.007350431539688462,0.0436707913655672,-0.0024014417285351964
1.1433333333333333,-0.32691204362240206,0.1174778665959849,101.86713152096087,-0.008563960418958797,0.0388653391666059,-0.0016309159608065224
1.1466666666666667,-0.3075669667905127,0.12280507933529777,101.90313668163836,-0.009757799296542125,0.0366407053936899,0.001592403408521852
1.1500000000000001,-0.29664988547490306,0.13266787847132563,101.92500539347738,-0.006399758872006004,0.033113239045782505,-0.0013001420440666462
1.1533333333333333,-0.28408318642127617,0.13205991530475988,101.94932082459505,-0.008975744426639776,0.030843789981449748,0.0011557308768758079
1.1566666666666667,-0.2615066582594255,0.14753898090984646,101.97159429655422,-0.0069831606395770315,0.03190988234918614,-0.0012460019462526444
1.16,-0.25409082989567544,0.14428776645129582,101.99477139393608,-0.005451476856978913,0.02661511714035975,0.0005608065885831171
1.1633333333333333,-0.24150052368333927,0.15216970588187848,102.02175063726379,-0.0068303127076915415,0.02563791251785767,0.002621730461519978
1.1666666666666667,-0.24249615012793233,0.16020540678775858,102.05135382465758,-0.005177648256541396,0.025698337118584196,0.00012623614479470073
1.17,-0.2272135043615951,0.15656123677609693,102.06676493598272,-0.006420305817041004,0.018411167573339143,-0.0006981271488905964
1.1733333333333333,-0.2069556735721808,0.16487030453368262,102.09727906073647,-0.00426148310778702,0.01677519392223338,-0.0001337022654661148
1.1766666666666667,-0.19949205006689458,0.16939432743014715,102.12524340811702,-0.004503955350015754,0.018186091712336566,3.696810012936364e-05
1.18,-0.20272447069672697,0.16406870628181944,102.14847853754883,-0.004964012151851771,0.013822338317515665,-0.002684469747013013
1.1833333333333333,-0.19454696018693735,0.1705688426713005,102.16592235458815,-0.0029288007554662586,0.009357229398611415,-0.0013309241465267242
1.1866666666666668,-0.19101673481651577,0.18019085355680142,102.2014828026375,-0.0046275953735520955,0.006953877436217699,-0.000976975381706211
1.19,-0.18849757476336634,0.16740699230678646,102.232467094844,-0.0011954093130131529,0.005752164907989704,-0.0012996361999335147
1.1933333333333334,-0.18416324262003828,0.1693303630896674,102.25516632011703,-0.003342182187122055,0.0040378794862602355,-0.0005897373719317433
1.1966666666666668,-0.1782402597146617,0.16492296465659997,102.29249851197625,0.0014940140768857472,-0.0029142349466940217,-0.0030888943977074425
1.2,-0.1731665448434112,0.16973319454017718,102.3120377273022,-0.0023028832089893024,-0.0001889634396458474,0.0027854033680332927
1.2033333333333334,-0.1784422996751512,0.16661883001623476,102.34927828099525,-0.0011110025002947744,-0.005431661172779206,-0.0017338306676591877
1.2066666666666668,-0.18216583070601486,0.1753928465364396,102.37853484007823,0.0005106235158699146,-0.007637162093613035,-2.9743971501879394e-05
1.21,-0.1876514585185112,0.16786810472278288,102.39571108685725,-0.0005295069070145838,-0.00817866716822143,0.00098367350323312
1.2133333333333334,-0.18377694291036883,0.17345730125223446,102.43254687538581,0.0009798669999324977,-0.012586088421256122,-0.0029728651082931426
1.2166666666666668,-0.18941426824092708,0.1627171902583883,102.46568260355026,0.0005354617822798332,-0.01583232218416622,-0.0038904650210268396
1.22,-0.18694018743268193,0.15640828026854836,102.49512758347161,0.0019535473045362776,-0.01930960161109438,0.0013346883683746794
1.2233333333333334,-0.19487908101938575,0.15653280339132944,102.52231185553342,0.002631298779501691,-0.021200802155454817,0.0019811624499149597
1.2266666666666668,-0.20795513098288704,0.14691953742028058,102.53348318060047,-0.000478251275338478,-0.021367857424795394,0.0015885584155739248
1.23,-0.21080482887315735,0.14392922590125629,102.57370576659261,0.004503589475611126,-0.022801443460196098,-0.0010753623712437285
1.2333333333333334,-0.21834037086377814,0.13448419923665503,102.5939020168227,0.004044513015234683,-0.0252023223446473,-0.0015460763757975267
1.2366666666666668,-0.22270579163684343,0.12909344310304582,102.6161434770145,0.00552910181536562,-0.02852844153310408,0.0024677837896690718
1.24,-0.24487106376205436,0.13391064319534923,102.64050041008268,0.00380819820392766,-0.028087414068516354,-0.0007928866977847125
1.2433333333333334,-0.2519128677133664,0.11798308505697908,102.6617218150648,0.007588528650601231,-0.033837996523408596,0.0005086019913745052
1.2466666666666668,-0.2654366999127003,0.10867803267598751,102.67519478699666,0.005609158097849108,-0.03512864358912745,-0.00018694110922614954
1.25,-0.2775250550098538,0.10612892945864713,102.70395539572455,0.008917650987247757,-0.03585689702262105,0.001988693018185715
1.2533333333333334,-0.3057911916234647,0.08996506972464281,102.71410495862453,0.004917936229636653,-0.03972973943252449,-0.0027548393609739077
1.2566666666666668,-0.2991794198677252,0.08794994395870723,102.7522969121814,0.007006768056166204,-0.04261009894049865,-0.0009852131848632128
1.26,-0.3128542437568066,0.08168997848735032,102.764765823324,0.006767152801926462,-0.04621748079980708,0.0016784437313751876
1.2633333333333334,-0.3448614340349542,0.07316104346244376,102.7875404647114,0.0072738265766595,-0.045494819112337104,-0.0015812492045994965
1.2666666666666668,-0.3614289265219353,0.0645669133484669,102.78927732576462,0.0072108938551394735,-0.04645930360731524,0.0007413756513427724
1.27,-0.37922483311004956,0.061847837315244514,102.82244567028904,0.011442852280441295,-0.047874053183260615,-0.004283637893383543
1.2733333333333334,-0.39537736660979383,0.03658608335544741,102.82951514861713,0.008472254831021203,-0.049741507648210635,-0.0020466013502751556
1.2766666666666668,-0.4079891113138344,0.029865300465307693,102.85256276106446,0.010288822247395605,-0.050862082876972144,-0.002197814702946741
1.28,-0.43131105244843476,0.01641871064866255,102.86492052166203,0.007203159059057717,-0.052339875864926055,-0.000779023197016623
1.2833333333333334,-0.45057659181688203,0.000709675931736888,102.87851999107521,0.011037891282219603,-0.054324269669907436,0.00015727763600979002
1.2866666666666668,-0.46555986072775285,-0.0068832130412203665,102.89649519684525,0.012092361216534453,-0.05303106573933104,-0.0022383222254207143
1.29,-0.4944419168630875,-0.005753887514503035,102.93016914736639,0.011459566367344791,-0.056302712858852126,0.0012285608862643677
1.2933333333333334,-0.5160164650077548,-0.01775706767629872,102.93554825435604,0.009698694827451157,-0.052264380135597574,-0.0002929316829465304
1.2966666666666669,-0.5369247949897833,-0.03518976323971768,102.94834500809752,0.012160700192289814,-0.05503116335915756,0.0005854372759859022
1.3,-0.5567322728115388,-0.05664413075068706,102.96419682571864,0.006849474045404221,-0.05680282528566074,0.0010757157455637456
1.3033333333333335,-0.5807686853344747,-0.06437321625865879,102.99515004314857,0.010381082541558007,-0.061540142806415205,0.0011604384658827833
1.3066666666666666,-0.601722327078491,-0.08349394395566812,103.01339131716624,0.013009506884864226,-0.059936403376290165,0.0008736653758346721
1.31,-0.6262555739812569,-0.09784292788449789,103.03568614662399,0.010810975076561084,-0.06109120739671492,0.0020059917357726316
1.3133333333333335,-0.646663401907516,-0.10274549491191441,103.07280705853874,0.01079466784972336,-0.058533116333959447,-0.001059308187659822
1.3166666666666667,-0.6823514074010316,-0.11452154598783476,103.08622886582502,0.01219607408549182,-0.05974205757437628,0.0004928765359514168
1.32,-0.7102687454615428,-0.12122866301718524,103.11359678414198,0.00979068612383944,-0.05747022961320241,-0.00019123826990108885
1.3233333333333335,-0.717791650414965,-0.13472005711014268,103.15893670748373,0.009519145683311896,-0.05869620520570423,0.002117015839796176
1.3266666666666667,-0.7558165887109978,-0.15066258988905776,103.18175168355052,0.01312268061937066,-0.05812260960095986,0.0014677350479415897
1.33,-0.7744285137005852,-0.1606805190335898,103.21789213060295,0.010426039272952206,-0.059210867092698447,-0.0004092580525338296
1.3333333333333335,-0.7954470308479499,-0.18073147039695026,103.25099513377855,0.01359504022259609,-0.05690076409868538,-0.002421031833831211
1.3366666666666667,-0.8127349012810765,-0.19187180690010172,103.27838734696947,0.013867764304474157,-0.0604369036406174,0.0017771686136237557
1.34,-0.8459782453360671,-0.19651733115943934,103.31143680849036,0.012207511257044975,-0.056884047383474794,0.0016752427093060238
1.3433333333333335,-0.8670269034873972,-0.2146024158601427,103.3507143915415,0.009639045868522154,-0.05684191712603567,-0.0016914304112500588
1.3466666666666667,-0.893022290119434,-0.22766536812301702,103.3849525356542,0.007749444527136348,-0.05808281539356579,0.0005769096325059505
1.35,-0.9114834718205247,-0.22664304695720533,103.42996314533538,0.00922164903340836,-0.055529033436498294,0.0023325935044037067
1.3533333333333335,-0.9391708278554413,-0.24826446339638608,103.47277367155914,0.008137322189000073,-0.05256215645480451,0.001455324815191784
1.3566666666666667,-0.9558598505683309,-0.25140803698501774,103.50768325511433,0.0068371806063716595,-0.0515644250129374,0.002245768894705709
1.36,-0.9807107715848017,-0.26181268157530313,103.55095281215382,0.010965467580210522,-0.05501101213189134,0.00042471932124189495
1.3633333333333335,-0.9930080924362883,-0.28286849615635146,103.59321117074346,0.008629585537512524,-0.05194817238460618,0.00033299780177166503
1.3666666666666667,-1.013380310100114,-0.28722804846945776,103.63964108778781,0.008010265026152347,-0.05009266587665072,-0.0013193913719367414
1.37,-1.0379788667113685,-0.29418717979263803,103.69015569145988,0.008763801837652307,-0.04925119782582984,-0.0014807615535014475
1.3733333333333335,-1.0547206843360184,-0.30289894738606077,103.74920203178287,0.011257843702548339,-0.043996062558944365,0.00386522901500682
1.3766666666666667,-1.0710309141491485,-0.31214592115017137,103.78226898791095,0.007693682261830764,-0.04526240290058813,0.002163030042070977
1.3800000000000001,-1.0888362275801813,-0.3230313712003231,103.81850458859135,0.010138017807593012,-0.04432966023860846,-0.002295386370440315
1.3833333333333335,-1.1079149884385955,-0.33719348537211563,103.88234929461002,0.006506710464586147,-0.04319105284860417,0.0018785464898535258
1.3866666666666667,-1.1128899328017472,-0.33475875072885275,103.94495522613843,0.008819745036597607,-0.03781798084823296,0.0019175271800861526
1.3900000000000001,-1.1332653591258113,-0.345638723354923,104.01142537225218,0.0034822778945600577,-0.038934536564672516,0.0017118503418170037
1.3933333333333333,-1.1543094922227595,-0.34154311190118614,104.06433160592682,0.00657091641884063,-0.036549386548927615,-0.0018302882693148389
1.3966666666666667,-1.160730990651155,-0.35832093575262214,104.11767077851407,0.0065744978884360716,-0.03693048805946293,-0.001700259235002803
1.4000000000000001,-1.1761522388964274,-0.35484744448666156,104.18757133576398,0.0030411745994691603,-0.030507804280671656,-0.00029289912153999416
1.4033333333333333,-1.1938807977061185,-0.3645791178945424,104.24969056514526,0.004047965835582388,-0.031393828289276435,0.0007250809350574106
1.4066666666666667,-1.18903797189301,-0.3763528606648769,104.31643574679018,0.004442966792789349,-0.02915313991477039,-0.0013213590638256744
1.41,-1.2061981829256077,-0.3667593278863662,104.3987802690156,0.004849328535149456,-0.02569099821011614,-0.0004416638142975984
1.4133333333333333,-1.208650584023893,-0.3727966258933587,104.46333220569258,0.004099892257954814,-0.025927656732223664,-0.0019365556356687492
1.4166666666666667,-1.2089604790938269,-0.3748687955917689,104.54154264337419,0.003048453310183211,-0.01808875189105989,0.00041023704710927447
1.42,-1.2160359174499786,-0.3760445623811917,104.61059847189352,0.0041790239687722434,-0.01877212663551777,-3.349840367084903e-05
1.4233333333333333,-1.236826093581321,-0.3690600495600683,104.67281679567607,0.001715327690464084,-0.01886720612795724,-0.0009762539148225523
1.4266666666666667,-1.2287931343847318,-0.371342033402058,104.7266607068716,0.0018340861682259574,-0.016259521302877347,-0.001018904315482897
1.43,-1.2281012336221846,-0.3602361749710847,104.77416571308765,-0.0006969459925708433,-0.013697016054805946,0.0011750586895297088
1.4333333333333333,-1.234890758321811,-0.3705425936520423,104.8382269212146,0.001717125954510315,-0.009870568179668988,0.0011063548299555903
1.4366666666666668,-1.2234027126041043,-0.35965284140042236,104.88731859866512,0.0004717006755383364,-0.009477517150409856,-0.00036928286125576215
1.44,-1.2344126447050563,-0.36428917078669465,104.94048981372332,-0.0022604282159258103,-0.0069742230696263445,0.0031531730258861092
1.4433333333333334,-1.227147649403887,-0.3600822867350668,104.9702430935945,-0.0018434491298316954,-0.0058817576369439755,0.00017603901585595735
1.4466666666666668,-1.2155502742015063,-0.3544502646842975,104.99304855366212,-0.0020964159414030565,-0.0043696427636620945,0.003994486515268398
1.45,-1.2142388160619808,-0.357909327596269,105.00921255780024,0.001211621637129628,-0.0021186922049814564,-0.0005122011217868394
1.4533333333333334,-1.2077406622577294,-0.3512267655312159,105.03041893034931,-0.0009987904563268774,-0.003388171555694538,-0.002328872137092727
1.4566666666666668,-1.2026425410788866,-0.3428301051420609,105.06923475203929,-0.0035699971353704858,0.0032021926548810595,-0.0007035340589481618
1.46,-1.201607387571621,-0.3396466526579715,105.07908502550019,-0.0002759547460151452,0.00267429362145643,-4.87024405531657e-05
1.4633333333333334,-1.178245596690465,-0.3304807176334643,105.06984954522895,-0.0017061549153779211,0.00751813907910579,-0.00016783510467873752
1.4666666666666668,-1.1734831015703058,-0.33035648086358754,105.06442669619977,-0.004901176659409728,0.004025016642520014,-0.0007282498318989895
1.47,-1.1625456639677862,-0.3231915189733034,105.05940553072811,-0.007160150438874781,0.009200194962953209,-0.0005998921301441444
1.4733333333333334,-1.1500719475852144,-0.3118707229946144,105.04217606516536,-0.0034199028992832475,0.010992613348697378,-0.0018457661710215396
1.4766666666666668,-1.147330705807853,-0.30540297592726745,105.02454024797882,-0.0034138734399005535,0.009585285920518204,-0.0018316222167764394
1.48,-1.130893686126719,-0.2969239602638961,105.01889679995806,-0.006070799840527241,0.013892272231572658,0.0009208906651743692
1.4833333333333334,-1.1189544776790041,-0.28311130875690244,104.98721727175013,-0.003760148512725119,0.015645178791180353,-0.0005143729614030711
1.4866666666666668,-1.1005262563616636,-0.2726997531509529,104.95742447722117,-0.004455772970008581,0.017336158199816185,0.000653596989364508
1.49,-1.0921282683643547,-0.2562334915879465,104.92127473812377,-0.008226204316895355,0.01713347601743412,-0.0012599056208818357
1.4933333333333334,-1.0728416723481358,-0.2558026517080688,104.88323721992516,-0.004639797464064535,0.018453188740022594,-0.0007916123353398046
1.4966666666666668,-1.0472521638721104,-0.2454494841744734,104.85778745910771,-0.005972913647337806,0.018133928627840648,-0.0011872260390645023
1.5,-1.0372930412596275,-0.24007071437124555,104.83165308606479,-0.0044733904070707415,0.020464993146876536,0.0018224227712177322
1.5033333333333334,-1.0131119664388402,-0.23766688784192477,104.79873803850818,-0.007064810899613543,0.018914851663290246,-0.0002968798725426867
1.5066666666666668,-0.9883439237400956,-0.21416891967065077,104.78178535927728,-0.00680123281220502,0.018803255243254234,9.901115366855876e-05
1.51,-0.9736132218775555,-0.20631033488951314,104.75486079923847,-0.002556469148170063,0.02163851055505346,-0.00035755223589330285
1.5133333333333334,-0.960566642417691,-0.20352228757175178,104.74230737808358,-0.005876351722637186,0.0221188371852192,0.0009986464543485743
1.5166666666666668,-0.9413526386607225,-0.1830649928538596,104.71519026977204,-0.009212943521687379,0.02164451656473031,0.0011489267222319086
1.52,-0.9105208612969264,-0.17428986818508468,104.69949495343288,-0.004826198093265643,0.023041245859326803,-0.0011359426375317947
1.5233333333333334,-0.9008980339585179,-0.16664589888394757,104.689890730749,-0.005838923970322623,0.022680260974438243,0.0015868461693251655
1.5266666666666668,-0.8700035935439699,-0.14432155012205375,104.6739558417613,-0.009100606683612284,0.024159730076803238,0.001120905488019501
1.53,-0.85213516953363,-0.1378827880710148,104.67982319559174,-0.0044459247836260065,0.021945902023475565,0.004013237298460528
1.5333333333333334,-0.8406283386987945,-0.13111123138479683,104.67703421305741,-0.007143327856148592,0.022589943656063052,0.0006500134211006818
1.5366666666666668,-0.818310945583564,-0.10680856377555958,104.66223375889909,-0.008657373591656295,0.024426317207380244,-0.0008021019106234
1.54,-0.7867977249505734,-0.10796590293339707,104.67359433813033,-0.0037491176475338787,0.023307953284043136,0.0009720221627247816
1.5433333333333334,-0.7765620709517886,-0.09037972520787553,104.6594334839773,-0.0052950968990690935,0.02009320349926886,0.0006433982716772827
1.5466666666666669,-0.7566902089585866,-0.08375634618910963,104.66789975560003,-0.003833372994873502,0.02078549943552452,-0.0013262115687064382
1.55,-0.7379429819100313,-0.07486869471400173,104.66033327724139,-0.0031159011271231648,0.01597205766659966,-0.00021249111546801905
1.5533333333333335,-0.7196359988115619,-0.07162299751823031,104.65867473569938,-0.006260792241863059,0.02300367436903274,-0.002413268051475903
1.5566666666666669,-0.7007994737440785,-0.04455660532600578,104.66389374370381,-0.004941806661666279,0.017754206785345398,0.0018943053834701718
1.56,-0.6845091772345753,-0.044363123648051464,104.65921710140093,-0.0065405469096464506,0.01617243143200654,0.002558762822171552
1.5633333333333335,-0.6645266035885393,-0.0332826255304207,104.65571499329562,-0.005305102447665788,0.01823940351695077,0.00041562392628217894
1.5666666666666669,-0.6540460068660384,-0.030825207231676865,104.64630789127548,-0.002773850658569282,0.014766331706834862,0.0010865495645935007
1.57,-0.6372879196138048,-0.024060429867718267,104.61784215253434,-0.005911373748383557,0.014061896050457347,-0.0008709366757194062
1.5733333333333335,-0.6269795333991601,-0.004239263862685057,104.6187997055789,-0.005754969004178687,0.015554889658045645,-0.002932347985341451
1.5766666666666667,-0.6116603999586956,-0.004872221517499522,104.60169815383944,-0.004294881871123415,0.016210650771000645,0.00040094578016885285
1.58,-0.5932043261768377,0.004452029191935474,104.59967725601366,-0.0035977320808031,0.012732904557906825,0.0015215679634645854
1.5833333333333335,-0.5839542667290388,0.016965753832912496,104.57065484758864,-0.001370784501189094,0.011104639044910311,0.001416327171591792
1.5866666666666667,-0.5716095527971695,0.007948525268804948,104.53568360193687,-0.00316640100981076,0.010822680348745374,-0.0019733807172135007
1.59,-0.5563828606189597,0.010618168053309686,104.49977980966973,-0.0013278301958786465,0.006685316397112163,-0.0003496273919799253
1.5933333333333335,-0.5529039981431586,0.025800888265340174,104.47033160627234,-0.004824865688034539,0.006751036763551637,0.0004229344245021623
1.5966666666666667,-0.5401836108802985,0.03278671241173336,104.42839199682767,-0.0014122222630638102,0.006005240253532436,0.0011731311502093287
1.6,-0.5435056867403331,0.026031542534510246,104.40678293640848,-0.0002992342626604483,0.0062709696502382655,0.0034094882667084535
1.6033333333333335,-0.5228896053298682,0.03123542918662411,104.36349598878444,0.0007715338604226958,0.0008162637218986869,-0.00028566678152658527
1.6066666666666667,-0.5142733522260974,0.03618307115952058,104.296094426881,-0.0014038523807111188,0.0017410050323708535,-0.00042974324336259197
1.61,-0.5267148605629987,0.03181856348896353,104.24657933193643,-0.0006292985752306027,0.00032926907109479377,0.0021583664974306788
1.6133333333333335,-0.5251434064933487,0.031529269901385513,104.1847727598099,-0.0032590967859632454,0.001766525737227546,0.0006373666087652511
1.6166666666666667,-0.5140222519833647,0.03961927477623791,104.12894623055911,-0.0025356028672865946,-0.0027243271588034816,0.0005206966494609595
1.62,-0.5188657497682724,0.044270167482651085,104.0833133071548,0.0004064546768240382,-0.005156735798293969,-0.001328460057664167
1.6233333333333335,-0.5110117304172228,0.04708954847233229,104.01328738383573,-0.0023505987192915085,-0.007821399266769044,0.0022521614827519043
1.6266666666666667,-0.5021495219353265,0.03158931737279424,103.95048358450622,0.002528299372949981,-0.009658648532439643,-0.00033561458189106726
1.6300000000000001,-0.5197016849006921,0.01860467133329536,103.87476310485854,-0.0038638740342480872,-0.00937849229316716,0.0004983377811803907
1.6333333333333335,-0.5148988764144696,0.03782775139002619,103.82365954228923,-0.00210844386710999,-0.009617666602272664,0.0023782175430459513
1.6366666666666667,-0.5303861881147484,0.01672398218690372,103.75211012305022,-0.0001573167014961316,-0.011596973901269339,-0.0004688725071003366
1.6400000000000001,-0.537656299274254,0.015984197142728845,103.67184852084372,-0.0006703156125140483,-0.012196413581947549,-0.003460852013919698
1.6433333333333335,-0.5372425484279639,0.02166532549010173,103.62021704976654,0.0010991933824687364,-0.014722497205545299,0.00036410228240603155
1.6466666666666667,-0.5467289672952038,0.02524008495883243,103.5535904516822,-0.0004363267662677939,-0.014062961310638538,0.00015585218629346356
1.6500000000000001,-0.5475349723158875,0.008501948158111002,103.4986747064794,0.0018208102402303033,-0.018091116067729715,0.002042175604512643
1.6533333333333335,-0.5581388415006111,0.0008360365940128106,103.43439063878573,0.001460125803212523,-0.019757279885214134,-0.002016594406004485
1.6566666666666667,-0.5661287839879857,0.00024178500465820395,103.35374210656263,0.0016126176111169442,-0.022071313274143804,0.002355347623533455
1.6600000000000001,-0.5930620113269826,-0.014983000802177177,103.29813665149504,0.003052117538531241,-0.01899772851092462,-0.0022753144465554698
1.6633333333333333,-0.6059585066446311,-0.02363154699983859,103.23632691070081,-0.0003350042861438845,-0.02356241260142913,0.0006612923955151679
1.6666666666666667,-0.6133868076900281,-0.03150585522595774,103.18203146340288,0.00026240796135166243,-0.02164721633987079,-0.0015429830881224379
1.67,-0.631352600231225,-0.03620764530385951,103.1186835196112,0.002556297690809624,-0.02246226340431771,-0.0020064296031133437
1.6733333333333333,-0.6442064852705013,-0.03981944133007389,103.07441838970689,0.004612807231962867,-0.02573062099675524,0.00039174090465982493
1.6766666666666667,-0.650203332188074,-0.04146009547578876,102.9927765631041,0.005757622367963195,-0.024026668839068396,0.0008325936406918622
1.68,-0.6703221062622586,-0.06083184659315399,102.94441367151002,0.00578280793796992,-0.025507412596875154,0.002339843745900031
1.6833333333333333,-0.6928596844927167,-0.06337618673143217,102.90157284898112,0.004604960586032283,-0.024484032703473702,0.0012601514197600966
1.6866666666666668,-0.7050557928329342,-0.0730266163210473,102.84220002399142,0.0005957959768452016,-0.02778991871217123,0.00042223434779487196
1.69,-0.721177970478529,-0.0805174481983679,102.78276918868394,0.0026230258779348457,-0.028270684447342695,0.0007925944459770632
1.6933333333333334,-0.7407532028335156,-0.0880173791911357,102.73622985870543,0.005217879389292685,-0.029009457825202263,0.00040726119928648913
1.6966666666666668,-0.7508983397961865,-0.11338001669444056,102.66757700033226,0.005920037902487342,-0.027774184732725155,-0.000864061387337142
1.7,-0.7701139714440685,-0.1107267541286365,102.61933904092106,0.004130462786141279,-0.029724780181129902,-2.812910061913509e-05
1.7033333333333334,-0.7805652760397636,-0.12276852312883386,102.55725451426778,0.007641039611997905,-0.030253485953832922,-0.000302245007000514
1.7066666666666668,-0.7845669230919136,-0.12885651722400904,102.51221996610063,0.007253905314436944,-0.02721224844808436,0.0010047709408225734
1.71,-0.8208649287734182,-0.1403291473602401,102.46149551825533,0.0036915987834149023,-0.02483943445333936,-0.0028868281293283242
1.7133333333333334,-0.8377068117090257,-0.15295035253587547,102.40009488938668,-0.0012905107811198814,-0.028413213178828316,-0.0007283796132531923
1.7166666666666668,-0.8522794319916693,-0.1559134267983086,102.35522355212068,0.005149422092843311,-0.027575052845987526,-0.0011155269777906815
1.72,-0.8729201142683529,-0.16992473818044265,102.29374532543646,0.005406669680483687,-0.02780455578819038,-0.0018870222330742642
1.7233333333333334,-0.8789061791350464,-0.17861054968138615,102.24149024013329,0.006038335582740341,-0.02701964980740984,-0.0016511688533639359
1.7266666666666668,-0.8946305012303243,-0.18348176095867455,102.19481433144794,0.0017746137898360882,-0.025450502842296205,0.0009276516526305207
1.73,-0.9060505829303875,-0.18897441418446687,102.13432629001814,0.003996873924976904,-0.02711044658551403,-0.0031170029943354944
1.7333333333333334,-0.9316704361362309,-0.20247731518782733,102.07998226237339,0.0035227576714245133,-0.024362446973128875,-0.001082346053674318
1.7366666666666668,-0.9469500185304194,-0.2047450260574852,102.03737013585044,0.005706343851312105,-0.025974567633186296,0.00018990236409453817
1.74,-0.9533835530069531,-0.21325859824082724,101.96820620428154,0.003951596423031251,-0.022342360047327266,0.0012948529276405505
1.7433333333333334,-0.9666685311236404,-0.22048962107323303,101.9228366871525,0.005955508905732782,-0.021987406447928556,0.0007920970081734816
1.7466666666666668,-0.9879071509143934,-0.21997367011715235,101.87844237714943,0.0031763815049284535,-0.021372105494625527,-0.0008150162787841033
1.75,-0.9919501510051426,-0.2310872060675909,101.83528997152123,0.002144418969733126,-0.02162779921253504,-0.0022378194525601086
1.7533333333333334,-1.0022310154977387,-0.23085289373502121,101.79559335653593,-1.2275013586237997e-05,-0.019882350631053917,-0.0011707312269374221
1.7566666666666668,-1.0126875599894298,-0.2426323073893979,101.74446306808152,0.005460201762061488,-0.018261396623323656,-0.00016003764378624897
1.76,-1.017440633581426,-0.25136882007240974,101.70451628918343,0.00285147118636998,-0.01458111443827758,0.0020619500782873327
1.7633333333333334,-1.0328575766457455,-0.2429161231139251,101.66448379861765,-0.0005488497510688169,-0.015355907533057298,-0.0004293770714140181
1.7666666666666668,-1.0305327861633622,-0.2534676503032463,101.62092017749768,0.002527017343572467,-0.014604163313832798,0.0008461190672350694
1.77,-1.0507173921807962,-0.2509541587922599,101.58365373875142,0.0037986422547913444,-0.016531533566741675,-0.002907439211032801
1.7733333333333334,-1.0476755888580673,-0.2564812896369945,101.54890101829876,0.0014842859835622658,-0.011890655960887616,0.000239291789142084
1.7766666666666668,-1.0559137758470147,-0.2592122453459965,101.518759752647,0.0017111929044635959,-0.010891676409508125,-0.0003313848450630956
1.78,-1.0555984873863993,-0.25934106149734154,101.47616284273239,0.002909701439953319,-0.014532856065584058,0.001906124292000322
1.7833333333333334,-1.0633795198010432,-0.25892880533245627,101.43609381644961,0.002948844285359245,-0.012575070826015122,0.0012333466163590666
1.7866666666666668,-1.054645249782076,-0.2601587562001534,101.40228572179495,0.0006285671044867485,-0.006229204590847943,-0.0005465544191407846
1.79,-1.060044672539572,-0.2612264544699962,101.36562459017205,0.0010492685282573486,-0.00930676259966513,-0.0006598156697702219
1.7933333333333334,-1.0566535752809287,-0.255244632773311,101.34135729119673,-8.105105324481265e-05,-0.009139492822924434,-1.2394036410240996e-05
1.7966666666666669,-1.0677340058635614,-0.24846542709490751,101.31320263385638,-0.001765303043106297,-0.008044850414361473,0.0008877051553836278
1.8,-1.058146533274057,-0.2527826605909512,101.2834097683746,-0.002152851905917824,-0.011280470507770594,-0.0020695159947975023
1.8033333333333335,-1.043236809937089,-0.25015129744178344,101.24637948847938,-0.004114523023041655,-0.003564935668720408,0.000773420253177038
1.8066666666666669,-1.054660471345449,-0.24126293126441398,101.19911295040362,0.0008785786174578426,-0.0043355003317305605,-0.0018679631807167417
1.81,-1.0434026625208837,-0.23375952650316958,101.17675753777873,-0.0033823840369466424,-0.005438278906661943,-0.0025180240506970106
1.8133333333333335,-1.0278075943939848,-0.22815476852645092,101.13707004114468,-0.0013481811556486916,-0.0030420359524951954,0.0017169282340055519
1.8166666666666669,-1.0343677804359654,-0.23058104143414884,101.08568731512523,-0.00011887056155455034,-0.000744500579760756,-0.0007848091880100401
1.82,-1.0183277230550671,-0.2145636216568323,101.06143474590762,-0.00039085320120910974,-0.0016929627395318844,0.002248737039369404
1.8233333333333335,-1.0232886697228356,-0.21352590457654538,101.00273106601622,-0.003723831855235146,-0.00035647711440860467,0.0004888178830477816
1.8266666666666669,-1.0005967451044278,-0.21940388126242705,100.95590256762998,-0.0024844638256046486,0.00265632082966891,0.0010639470526844317
1.83,-0.9913861990203675,-0.20226072149479535,100.90561208839496,-0.003613805008657594,0.0026739275363034058,-0.0006959007799113857
1.8333333333333335,-0.9769362104874781,-0.20142533933368917,100.85625321125795,-0.003459869624809225,0.0006047631082298837,-0.001375896559234449
1.836666666666667,-0.9736040719659179,-0.18653705768725853,100.80054005314088,-0.0027421132787432945,0.0003311727448713658,-0.0011843391118726602
1.84,-0.9541981735126442,-0.17676023959851683,100.73523170630585,-0.0020380820370658023,0.0033573133701175657,0.0004231728743764777
1.8433333333333335,-0.9497164446409203,-0.17673545448901087,100.6672777089992,-0.0016607538586642999,0.0015437898634429736,0.0005051057226304541
1.8466666666666667,-0.9330786513653287,-0.16597208294748084,100.59709303824819,-0.0032336979017660496,0.00010831092070640383,-0.0002157906551812768
1.85,-0.9221613411779742,-0.161347601507144,100.51309994834729,-0.002961165299891917,0.0004044148765061195,-0.0016600249548350344
1.8533333333333335,-0.909760851233859,-0.14927009439421812,100.43624514914117,-0.003022612344683464,0.0021472700792030236,0.00027987260218508876
1.8566666666666667,-0.9012755144604193,-0.14576650499329674,100.36403931250908,-0.007627578351779223,0.0036829248946071377,-0.0023433436560962805
1.86,-0.8958421777253188,-0.1367046789460823,100.28097759264185,-0.000821720091629887,0.002829299724180394,-0.0012643110602613581
1.8633333333333335,-0.8721780107032469,-0.14499429377882841,100.18373992286146,-0.004490035341584538,0.0012997193156906906,0.002610755069472484
1.8666666666666667,-0.8645657560819235,-0.12139156815555326,100.0933235291617,-0.0022238852301050666,0.0069927079196881285,-0.0009485469011606502
1.87,-0.8634379110807329,-0.1242411369565302,100.00011541668263,-0.0005816775900094593,0.00489963293758635,-0.00016069490160685438
1.8733333333333335,-0.8417175940311059,-0.10581276365220588,99.88910941985597,-0.001972858700852735,0.004133393851577861,4.5034377673988986e-06
1.8766666666666667,-0.8224688921246447,-0.10492675396472947,99.79645956318127,-0.00022363226768574431,0.0027291662082347835,-0.002106758540105057
1.8800000000000001,-0.8176590427005069,-0.09968972868766557,99.69018278949498,-0.003189848310849944,0.0018838276345304872,-0.0026895462258775854
1.8833333333333335,-0.8242357234653829,-0.09833909401138982,99.58459424047501,-0.0032114684366451787,0.0035213510399385523,-0.0021366671498532436
1.8866666666666667,-0.801385729640648,-0.08880694155913467,99.47804539853337,-0.0014911165344280563,0.004276929973025363,-0.0014522776258628245
1.8900000000000001,-0.7966491657541521,-0.08739711112189637,99.37635754750974,-0.005032953107518983,0.00350527125779741,-0.002468575224126477
1.8933333333333335,-0.7779410736710531,-0.07992531756549877,99.26511570872587,-0.0026245540296623727,0.0016583403707175046,-0.000630242882938522
1.8966666666666667,-0.7723107298971728,-0.08377555063980555,99.15382195387485,-0.00034732760691335977,0.0008493477460923893,0.002622653268581541
1.9000000000000001,-0.7633626329573832,-0.0710339692334735,99.04295121701838,-0.0018149272367511053,0.0007808144214065969,0.0004180076588312774
1.9033333333333335,-0.7572241463708448,-0.057634649049732346,98.92665189214691,-0.002111011784183622,0.00024934228551133425,-0.0010673315836977006
1.9066666666666667,-0.7613068742549578,-0.0668271658850178,98.81566466601254,-0.001883325527690435,0.0017952281608680978,-1.7351311449040163e-05
1.9100000000000001,-0.7429774405595099,-0.056053700326221007,98.69232576347177,-0.0034932015549911377,-0.0015291004039370802,-0.00027440439582964425
1.9133333333333336,-0.7336228225621407,-0.060836973182471214,98.57564239321505,1.9973714244667052e-05,-0.003384511283756488,-0.0004936967202717565
1.9166666666666667,-0.7414724238597991,-0.04895682769789237,98.45976739574157,0.0020323436884266645,-0.003200797763115339,-0.003338124891958792
1.92,-0.7327716860237932,-0.05899096905878487,98.34747181166537,0.0002973966331885794,-0.0038534962096408777,0.00112528736079687
1.9233333333333336,-0.7347116781456207,-0.05551709536968369,98.23513909871703,0.00035512696687635913,-0.006410209782455987,-0.000684066645878771
1.9266666666666667,-0.7223119101953246,-0.05561654940708838,98.13318250574797,0.0003857994846359742,-0.007589340969242407,-0.0006447423029291107
1.93,-0.7195509707615799,-0.05112817099029536,98.02719152081066,-0.00018185261895290296,-0.008277474434250944,8.673100674356927e-05
1.9333333333333333,-0.7237990633595305,-0.057845959424622395,97.92127477288062,-0.0009107996385905783,-0.005362443461615203,-0.0001433283595725761
1.9366666666666668,-0.7185990779913298,-0.06292873218567054,97.81079619636618,0.0007133896607864521,-0.006741981202672247,-0.0016141711295559662
1.94,-0.7374531240058173,-0.05123340975272847,97.70434033177473,-0.0020324132705326218,-0.006467248624711923,-0.0022150611133674373
1.9433333333333334,-0.7269724726072698,-0.058234571236777916,97.59158351047097,-0.0007998098114003614,-0.006846267390898938,0.003027908502444174
1.9466666666666668,-0.7441092953643876,-0.05998832851621647,97.48030604797582,0.001636646687461144,-0.007970140994850439,-0.002312051091016046
1.95,-0.7385355163737939,-0.06539276696604446,97.38829564945485,0.0008909430999518164,-0.00907085243023048,-0.0009706789342704237
1.9533333333333334,-0.7434350741831345,-0.06935163291107305,97.27189021412177,0.001780191645227483,-0.010526668807769335,-0.0005323919706122176
1.9566666666666668,-0.7528168874720416,-0.06580136934813012,97.1597196960849,0.004901536069625408,-0.015322577940334797,0.00014248703093310594
1.96,-0.7513222885454486,-0.06370135543037218,97.05618674536186,-0.0020474444377339804,-0.008755727590518115,0.0005593260080118554
1.9633333333333334,-0.7652164332099204,-0.07782751832338476,96.93638265661212,-0.002253471035031736,-0.012223768068608679,-0.0026797945445805544
1.9666666666666668,-0.7657055431778608,-0.0756475426076941,96.82071325814549,0.00010311629492331515,-0.01344387724910772,0.0015410981395567057
1.97,-0.7725061989105706,-0.08911506571181949,96.69998318548697,0.0008224127804521345,-0.011178767451451261,0.004748488706682558
1.9733333333333334,-0.7754216674673353,-0.08303167013381083,96.57810237685322,-0.0025897663022569615,-0.015947554272390998,0.00040398540857576793
1.9766666666666668,-0.7938920360853396,-0.09409734365137383,96.46132551375155,-0.000501245495745977,-0.01595514414447442,-0.00023040517130663054
1.98,-0.7901792232184464,-0.10556288760697079,96.33283205689906,0.00012088482379453468,-0.01600449546821724,-0.0003386237363869949
1.9833333333333334,-0.8036604825077382,-0.09839837073879609,96.21519421922552,0.002975226666608017,-0.013774608918512633,0.0006724801231990554
1.9866666666666668,-0.814333127938148,-0.107405242869979,96.08932562503628,0.0022751590471876263,-0.01634452841476063,1.3374203245528102e-05
1.99,-0.8178123933761374,-0.11071861637305566,95.97128058045686,0.0023524356676732985,-0.015187549327528884,-2.640414827232464e-05
1.9933333333333334,-0.8318277849101113,-0.12400757422096276,95.82863740797646,0.002130185539166026,-0.016667252503527692,0.0018453753757797266
1.9966666666666668,-0.8461973296025108,-0.12520365847622908,95.7082853219866,0.002659959786058202,-0.016838189530770632,-0.00032473231397264107
2.0,-0.8519999960521958,-0.13970327164351568,95.58289282396154,-0.00048036658041075383,-0.014402958191999393,0.0006579055305037215
2.0033333333333334,-0.862424129104172,-0.12986038460992283,95.45113350447961,-4.114488397971138e-05,-0.014086673202146497,0.0003107934531005049
2.006666666666667,-0.8703901895021685,-0.13338560265406396,95.32097700752347,0.0005859587351241172,-0.017796471089211528,-0.002257750934562236
2.0100000000000002,-0.885052252438772,-0.1341970677698608,95.17246326240566,0.0019347429661137586,-0.015451190384302906,-0.0016990130897864353
2.0133333333333336,-0.8889194852132938,-0.14572167749306278,95.0488183055957,0.0005707613946313417,-0.016179365955245738,0.0004961419205886874
2.0166666666666666,-0.9006183183598058,-0.15166471979309765,94.91172282182815,0.000627176414801327,-0.013477095715787861,-0.0012740383418846793
2.02,-0.9159385924030766,-0.1585616535888615,94.7795894435479,0.005107839573144044,-0.01585137554311152,-0.000861322096983892
2.0233333333333334,-0.9230334593925626,-0.16323633198202273,94.63497622816384,3.0697865428688884e-06,-0.01200512568681416,0.0022194621525712505
2.026666666666667,-0.9170399391201324,-0.15743461482521395,94.48704750951774,0.0009478586617492719,-0.01302533989677145,-0.0012783850147456927
2.0300000000000002,-0.9297033050680827,-0.17425432966104143,94.33498570055943,0.004551793917801013,-0.01564654419678087,0.0010991172600035358
2.0333333333333337,-0.9474573670481558,-0.17508354445767088,94.19237919309356,-0.0008584176254462826,-0.010779213956329617,0.0016403908329384496
2.0366666666666666,-0.9478270746064437,-0.18052841247799503,94.04499504248706,0.0007080640276559528,-0.01368074552113815,-0.0014160402310977752
2.04,-0.9573941024868872,-0.17676168140962947,93.9071570849098,0.0007561945491342314,-0.015103733428239677,0.003675098334003089
2.0433333333333334,-0.959062159702082,-0.16873789160379643,93.73508950125596,0.003135550625288546,-0.009564082543847791,0.0010811678502994347
2.046666666666667,-0.9737030835839254,-0.18518572899123256,93.55920725995189,0.0012200875834689042,-0.008532727149926356,-0.00029133197936677575
2.05,-0.9654199418613018,-0.18101606983773882,93.38108665008421,0.004130336421680268,-0.012477319522431675,0.00034762390464377783
2.0533333333333337,-0.9580893711970986,-0.1910392253361324,93.2178699372271,-0.0006002835511683191,-0.011721142364796617,-0.0007764348125200393
2.0566666666666666,-0.9733771125677633,-0.18390254817918833,93.01268966936877,0.0035160615273240625,-0.008240333975009027,0.0031102640108503646
2.06,-0.9731637362308186,-0.1852037018247662,92.84925197746314,-0.00034007928920367546,-0.009864250964221345,0.0007535640178694574
2.0633333333333335,-0.9814676166534797,-0.1940062419269944,92.63753543208072,-0.0020329013132816647,-0.011048578860236084,-0.000657215487872936
2.066666666666667,-0.9818023853419552,-0.197421435975257,92.42276727420246,-0.001297038719457899,-0.009907203926141006,0.0014982192530985548
2.07,-0.9763447221121115,-0.18729844446857197,92.21236429429493,-0.0034642426019886453,-0.0077741848727676316,-0.0037989461408719284
2.0733333333333333,-0.9835759204054644,-0.19256235622783638,91.99281964865263,0.0009186154323321547,-0.011106967873104416,-0.0009791515839035834
2.0766666666666667,-0.9786516678798751,-0.19499252493280417,91.78412823292902,-0.002277813182512683,-0.01026647590230765,-0.002184749485682357
2.08,-0.9768923192129746,-0.17750113410500867,91.5671490162083,-0.0013348422025402603,-0.011861841590056725,-0.003343416866497328
2.0833333333333335,-0.9646212836325947,-0.17391908643674162,91.3366651750099,-0.0002622368553804078,-0.00632908349066442,-0.0021261670487199283
2.086666666666667,-0.9781847912411114,-0.1765355545476109,91.10927861977629,-0.0029650280380176335,-0.002578799499807858,0.001029992988838698
2.09,-0.9734293285490896,-0.19123231490256415,90.86505645426136,0.0019285539069349208,-0.007507231524183304,0.0020638572386256207
2.0933333333333333,-0.9614618934434505,-0.17806864692776164,90.64401051526532,-0.00134930100445852,-0.004171221261949989,0.0006027086199166444
2.0966666666666667,-0.9688718155072045,-0.17624270272562567,90.40654405399354,-0.001457770023196624,-0.0031428414707356423,0.0011117187638477934
2.1,-0.9592074862032912,-0.16257800462579045,90.17149735006376,-0.00259313767667969,-0.006061534815134024,-0.003783118173299108
2.1033333333333335,-0.9429109608158758,-0.16873616269826933,89.93358515385908,-0.0017217932490296581,-0.0018455463464054534,0.0010088198717440858
2.106666666666667,-0.9535818471449828,-0.1674430304202679,89.68673516922347,0.0007398855316127875,-0.006615373153520463,-0.0014149102753840375
2.11,-0.9413916963366753,-0.15936582160525756,89.43340034580561,-0.0005104954810222339,-0.004156426127745585,0.00012431872189414437
2.1133333333333333,-0.9407129414053447,-0.14828095782226441,89.19592729833579,3.441631611044186e-05,-0.00138017545145745,0.0021787700751054496
2.1166666666666667,-0.9294660953815658,-0.158158613450296,88.94911374817805,-0.0001049820111823222,-0.00234363097588833,1.0178226951538227e-05
2.12,-0.9373156619326619,-0.15092404642733798,88.71528030596339,-0.0006620261787923787,-0.004809910543369215,0.0006656817147806511
2.1233333333333335,-0.9205437577074082,-0.14508355899192046,88.475022372229,-0.0015340909430127934,-0.0013296613838691428,0.0008554243635848965
2.126666666666667,-0.9106709873637879,-0.13335106491091472,88.22183504214291,-0.0025415034990568207,-0.0049445300907426555,-0.0017604009993942922
2.13,-0.9043147041331658,-0.1386093972470347,87.99454910441433,-0.0004258475937942318,-0.004424568869090764,-0.0015173283171668384
2.1333333333333333,-0.8998454630906649,-0.13729398832753367,87.7514901001148,-0.0023214398155910485,-0.0008454099378166035,0.0014179048242552407
2.1366666666666667,-0.9006614632798299,-0.13722424839679082,87.50820453138734,4.732735880894003e-06,-0.0033005117016761494,0.0013728065069964388
2.14,-0.8930230748383087,-0.127624194743743,87.2772194255856,-0.0010305723962823012,-0.0032233653166891395,-0.0019526046391472656
2.1433333333333335,-0.8811897012141606,-0.1275794565601164,87.04687857833368,-0.0012381873677648177,-0.0029038643564303864,-0.00032699357318947194
2.146666666666667,-0.8820889663191986,-0.11936271466955758,86.83902710895525,-0.0014016190579287124,-0.0014784810116788881,-0.0011155165302144747
2.15,-0.8680544802879746,-0.11502197489248811,86.61619486759288,-0.002065988558387194,-0.0060151475078633,-0.001263304603881831
2.1533333333333333,-0.8780568560150698,-0.11401154667812298,86.39576097893553,-0.0008063622677966128,-0.007291044508053519,-0.003886392156002253
2.1566666666666667,-0.8668742632584101,-0.10646366788815448,86.18632495461068,0.0009764418158201004,-0.0031111788413570795,0.00014472144119227772
2.16,-0.864157649046274,-0.11605842009669778,85.96031813892633,0.0023304397937742435,-0.004352102071820352,-0.0016379951599242587
2.1633333333333336,-0.8508990163030044,-0.10083931221349006,85.76350605382974,0.0011576607059593145,-0.00597156852169548,0.001551429966847317
2.166666666666667,-0.8489729273064692,-0.10722405632364862,85.53928744454562,0.0029696024418199253,-0.0064813044099046,-0.00086497336092419
2.17,-0.8494297461539421,-0.10398230934583613,85.34307715343094,0.0005243115689258885,-0.005712229444606022,-0.001292421539293475
2.1733333333333333,-0.8488115284764534,-0.10929399669560454,85.13627096217596,-0.002102950075397603,-0.004934287601734988,-0.0012657400908437837
2.1766666666666667,-0.856741589698245,-0.10670946764764175,84.93614081283299,0.0009311190976266722,-0.005880883735816512,-0.0018105449643949902
2.18,-0.8503094692894118,-0.10104255378522141,84.72084002877665,-0.0020764562498342865,-0.007006288790604926,0.0010927167854237695
2.1833333333333336,-0.8435035068852693,-0.10402347324137806,84.52497936920432,0.0029987289840177982,-0.008145358840778851,-0.0012092133491732268
2.186666666666667,-0.8371102539881363,-0.0969112094227604,84.32393286928492,-0.0010236293165442035,-0.0054373431506399075,-0.0007222074294913265
2.19,-0.8602622899584726,-0.11462205703959254,84.11965036314969,-0.0009094810356479808,-0.008788761756625733,-0.0021777110971259706
2.1933333333333334,-0.8535389389938557,-0.08947612480222901,83.91251992657438,0.0026165964059966782,-0.010145540718810166,-0.0002549934051542014
2.1966666666666668,-0.8457899717807658,-0.09973294553301071,83.71972290285436,-0.0009460779042349398,-0.008399850076190239,-0.0016325238277238182
2.2,-0.8501694297620589,-0.10526438580447868,83.51489543113378,-0.0005036285322882245,-0.010219836117981567,7.479322408297264e-05
2.2033333333333336,-0.8518632105845803,-0.1070200866785452,83.32077553455666,-0.0009458096739851786,-0.00668484455095104,-6.082025484229258e-05
2.206666666666667,-0.8544451858371442,-0.10797277383895725,83.12098677593505,-0.0008106485271479968,-0.007832477617184825,0.0006208079467024505
2.21,-0.8591015473572378,-0.10640645511183468,82.91381226996972,0.0029139445729423025,-0.008967791785403863,0.0018557014272485677
2.2133333333333334,-0.8541757694576512,-0.11745906075497185,82.72810458675039,0.0017407979699046465,-0.009189576061531495,0.0005390478673637914
2.216666666666667,-0.8644872207415121,-0.1090478957444671,82.53468336753157,0.0004487263334490755,-0.00805164436621474,0.0008250654423043893
2.22,-0.8595408054714427,-0.11518977386075555,82.32683796891878,0.0036855930018361237,-0.00909864416142941,0.0010427515552012818
2.2233333333333336,-0.8708077422675363,-0.11215327907589906,82.14521720905059,0.00019492202888367983,-0.008438585610594657,0.0022720110866061515
2.226666666666667,-0.8769396213249614,-0.1158046104221498,81.95321613661872,-0.00028110760233501157,-0.007810636065702283,-0.0014468974670672492
2.23,-0.8900340762551125,-0.12092779535680451,81.75696150065795,8.40291399514087e-05,-0.009372294337356674,-0.0032637513861070925
2.2333333333333334,-0.8885997618999496,-0.11851276753759096,81.56855399989828,0.004512165593406527,-0.007649103764944328,0.0014956718241035214
2.236666666666667,-0.889637579966648,-0.12101806407663644,81.37065584269801,0.002428799399793061,-0.010731897308567816,0.001619571787556918
2.24,-0.8911559605499225,-0.1357304765318903,81.17952796437147,0.0004782329125992263,-0.014677602678826233,-0.0002207779186763138
2.2433333333333336,-0.8973510935127189,-0.12929208782672505,80.98675307620482,-0.0009050731375134816,-0.012210693403421059,-0.0006681855545825172
2.2466666666666666,-0.8940555540995002,-0.12873992352723954,80.80725656025825,0.0010595886941308411,-0.01261789778035824,-0.0020311509567280898
2.25,-0.8944594288240886,-0.13654464594630028,80.62246166867848,0.0003900963689578543,-0.011636282266753445,-0.0005759468057578987
2.2533333333333334,-0.920618509537271,-0.13455637350932795,80.43726329078741,0.0007332566433057282,-0.008761808292945095,0.0011849504006320286
2.256666666666667,-0.9176452749967433,-0.1445373391317592,80.23954346788871,0.0008197296623185592,-0.009628610629582845,-0.0008261002434564809
2.2600000000000002,-0.9043358212293732,-0.139020726209066,80.05962937932551,0.0015606344349347661,-0.0090231794057462,-0.0007967174435257924
2.2633333333333336,-0.9284119812373927,-0.13486194525286896,79.8863358915611,0.0038520621191968363,-0.010948196379407906,0.002430128602495601
2.2666666666666666,-0.9299454287071162,-0.14717951617419503,79.72362359769623,0.0009398694901289822,-0.011503702917306366,0.0037671464811193096
2.27,-0.9242215305741389,-0.15226461629440768,79.56517026946403,0.001787518484311284,-0.00935017155572797,-0.00017402214447732712
2.2733333333333334,-0.9416145252469966,-0.1572497397465785,79.39441585511645,-0.0014555094137253055,-0.008373872737211041,0.0012216276553232033
2.276666666666667,-0.9427438151532048,-0.15022890363402633,79.23170189615172,-0.002037496871312475,-0.0135933718597783,0.0014719105902881386
2.2800000000000002,-0.9412163515115113,-0.1522995762987507,79.06111802821668,0.0006352942998234347,-0.007926102825073746,-0.0012772347591997768
2.2833333333333337,-0.9429315870292182,-0.15863125373472373,78.9139866625949,-0.001878572950968125,-0.0099814702073644,0.0014652255151291376
2.2866666666666666,-0.9503304678783808,-0.15843507031372694,78.75796559202041,0.0005152959916081834,-0.009477402606928984,0.0005779808690321473
2.29,-0.9436950484596254,-0.16536225285943262,78.61171712346895,0.002916442521476276,-0.008925850545123706,0.0005617810862561472
2.2933333333333334,-0.9471592156844425,-0.15706154038273107,78.47504328833995,-0.001399021732154773,-0.00808615272290531,0.0011825013095754268
2.296666666666667,-0.9581031809309322,-0.15102509068147663,78.32109214276157,0.000744356166602193,-0.0070942943746428195,0.0024405165257780693
2.3000000000000003,-0.9516209256449526,-0.15371574617920822,78.18012825801004,0.0003266060117852965,-0.010342762608500167,-0.001785513116773374
2.3033333333333337,-0.949685417422191,-0.1549355713373745,78.01932742454959,0.0014294992941239718,-0.0075685166382057426,0.00046945630650113235
2.3066666666666666,-0.9588026605640377,-0.16106531062858542,77.85219806911232,0.0015197782444109538,-0.009718129977679265,0.0017601557974426542
2.31,-0.9535099587216521,-0.150143627654798,77.68749738015754,-0.000151396506318579,-0.012046401403342219,0.0005165579744193902
2.3133333333333335,-0.9660969253993142,-0.1512509226855493,77.52503161168285,-0.00011949053320232467,-0.006668741760586614,-0.00011985458983141076
2.316666666666667,-0.9527145984760896,-0.156300123920597,77.3662647267228,-0.0004601493152426428,-0.004942902263997009,0.0029687090089553984
2.32,-0.96200709625403,-0.15628832103229554,77.1959368114425,0.0013786300716136385,-0.00530890451831702,-0.0025392425028712877
2.3233333333333337,-0.9555153465569451,-0.14439597848063773,76.99437274197417,-0.001842813091219201,-0.004806949366671963,0.0010493969018411354
2.3266666666666667,-0.9565725880912591,-0.15161261839574153,76.78873127576922,0.0015024421819278392,-0.004978745828026995,-0.003668717667162808
2.33,-0.9566595944452037,-0.1504987839644357,76.56829979120346,0.0002644276855692163,-0.006451208008123268,0.000870058417587465
2.3333333333333335,-0.9532878758672961,-0.14301402984320521,76.36138623409391,0.000805869244398596,-0.00855749988486452,-0.0015718681420785617
2.336666666666667,-0.9438765471015356,-0.14516710007358774,76.14963443907561,-0.0011643439639465161,-0.009446188234701752,-0.0012458399345660765
2.34,-0.9386002444195256,-0.15245694355709563,75.92862001985507,-0.0020059854517758776,-0.009745538210301094,-0.002693096287505529
2.3433333333333333,-0.941583157804309,-0.1538308950730797,75.72134831057309,0.0008169209212613633,-0.0033474595177866396,0.001044802621626529
2.3466666666666667,-0.9440326893959777,-0.14297789629570598,75.50348784092405,0.0019032416883514257,-0.00440314471113597,-0.0010713577866676375
2.35,-0.945923275442237,-0.14513778873199393,75.29340981802305,0.0014141514286961233,-0.007241952823626633,-0.0016007899167274611
2.3533333333333335,-0.9390990737616958,-0.13658526456540185,75.08706891195499,-0.001661757971787074,-0.005874630310916195,9.449944346274692e-05
2.356666666666667,-0.9261381436006115,-0.14060120680618335,74.87141777166234,-0.00046831191085413724,-0.005783002359173376,0.001245372179000522
2.36,-0.9341260291496208,-0.13499241742727588,74.65045226613975,-0.0010333063962781924,-0.00806623099070768,0.0008612168608782443
2.3633333333333333,-0.9277901676445526,-0.13563339389809292,74.92649288447153,0.0008630457020799209,-0.009033282929279246,0.0007240862592609792
2.3666666666666667,-0.9173626104723787,-0.1356112955017927,75.34337566093413,0.0010009636144036283,-0.005300089225322521,-0.0025427468275892894
2.37,-0.919129405518488,-0.12893509417299626,75.77589513240123,-2.9375467984258763e-06,-0.008223315186910352,0.0004959652662903043
2.3733333333333335,-0.9234590557238461,-0.13544880626129352,76.20065175836294,0.0022066656286742993,-0.003597992583926635,-0.0010786977537320856
2.376666666666667,-0.9310345636607702,-0.1271219372956599,76.61960857539636,0.0013457679001163425,-0.006169898869154786,0.0009619003636160417
2.38,-0.9289230720383564,-0.13219848136333945,77.0451546823801,0.0030397629388641215,-0.00635562419673247,0.0013306168092048901
2.3833333333333333,-0.9251223158917167,-0.11789278960703464,77.08953227752065,-0.0019610976727684973,-0.008914297505872281,-0.0038531911094039774
2.3866666666666667,-0.9190801856860383,-0.12077571279830428,77.02584007932926,0.0023807045528144565,-0.007187384830632336,0.000970948871180755
2.39,-0.9153043218921438,-0.12302756211401401,76.94963634889434,0.0002599981738476994,-0.00407936481237046,-0.0002630608521984398
2.3933333333333335,-0.9201212539820495,-0.127227494190784,76.88637011089386,0.0040189423022548125,-0.008595194452063684,-0.0016732212767844965
2.396666666666667,-0.9195359467753521,-0.1310451608598343,76.81377440758921,0.0012531417947047475,-0.004466148204470286,0.00408032707863886
2.4,-0.9282317819527894,-0.12575644109802478,76.72770656160169,-0.0032390622840900085,-0.007535859472375519,0.0013193628995934047
2.4033333333333333,-0.9181733279662568,-0.12074855643635889,75.69351608017877,0.0046524414488654025,-0.009212856815860402,-0.0009055413795100477
2.4066666666666667,-0.9129382553778504,-0.12087972380170241,74.36111186385213,0.0016746722931393894,-0.009193267699193977,-0.0008188667299855149
2.41,-0.9106822007556805,-0.11897234257458253,73.04268666849127,-0.000828508433352583,-0.006581951381068696,-0.0010835867777971436
2.4133333333333336,-0.9121939335915864,-0.1155379961582394,71.70672607088746,-0.0003703452903421186,-0.008446650884531991,-0.000344285976357247
2.416666666666667,-0.9148002345587624,-0.1181400971892695,70.39012235804366,-0.0026998008603374532,-0.00692819788330467,0.002343963554520655
2.42,-0.9137933678911996,-0.1216039305423548,69.06397668957226,-0.0009294780098952119,-0.010619001555477443,-0.0008794381691188685
2.4233333333333333,-0.9127539295039595,-0.1302090573430904,67.52079926969444,-0.003688039485537682,-0.007962133040349352,-0.003988642971693458
2.4266666666666667,-0.9112719308842023,-0.11858377871515702,65.9278695044619,0.002147592445863073,-0.007345365105950941,0.00278733601567488
2.43,-0.9148512706211039,-0.1219988092014823,64.32057980996989,-0.000618357996799991,-0.006624898173708321,0.0035558982103733113
2.4333333333333336,-0.920297715157107,-0.13249664444782064,62.7301591102888,0.002101936765123138,-0.008556056894500109,-0.000982115179182107
2.436666666666667,-0.9216589593892817,-0.12436349956457587,61.14104241354701,-0.0005410237885518605,-0.009360817801392363,-0.00136196439969764
2.44,-0.9285601094705351,-0.1296055140773173,59.53572448399964,-0.0007333266815667102,-0.007498215232877175,0.0005634148181477122
2.4433333333333334,-0.919326470578791,-0.13249259030641147,57.38101039538354,0.001304235128611588,-0.0058917423364883885,-0.0008761036392449811
2.4466666666666668,-0.926474969785164,-0.1250498547225647,55.089349516122375,0.0019331731084267115,-0.01077903180293565,8.75214873497704e-05
2.45,-0.9312783951074427,-0.12136942767272699,52.787941736951716,-0.0043658358911549495,-0.00788546819815615,2.9802354606315147e-05
2.4533333333333336,-0.9421477911726601,-0.1269406588905052,50.48088069692455,-0.0011539064332086479,-0.010645727948933408,0.0006693746347981891
2.456666666666667,-0.9409582258657562,-0.13073171931697733,48.17690630421008,-9.76850426894411e-05,-0.008346880878868642,-0.0004985782382712395
2.46,-0.9559621801837209,-0.12995547338478264,45.876919864873365,-0.0013813310923248342,-0.009428940864392464,0.0010789768447025843
2.4633333333333334,-0.9494090707333555,-0.12683878405231055,43.977499808614745,-0.00261515457831664,-0.007206618292195039,0.0002575473112386945
2.466666666666667,-0.962774753987946,-0.13281653465166907,42.19009028827749,-0.0011170838192424348,-0.01012747722657379,-0.0013241670525504631
2.47,-0.9614249919077396,-0.1329234617593971,40.408351802033465,0.00015169638889288474,-0.007966938926464717,0.0019893789634332906
2.4733333333333336,-0.9659551896283801,-0.12861331675135695,38.64746078510363,-0.0012031963562462683,-0.009898105551355669,-0.0017910384525488482
2.476666666666667,-0.9661449904251623,-0.14063963145331684,36.861711426394336,-7.526938698342771e-05,-0.008712656915324121,-0.00018426089629732109
2.48,-0.9748111478811021,-0.13692857759272953,35.08972542789564,0.004740695275590903,-0.01053814450966942,0.0017373157854370983
2.4833333333333334,-0.9844963171878542,-0.1289066036460443,34.290229401490954,-0.0014500878871871357,-0.004538740991934636,0.0035497970073972477
2.486666666666667,-0.9815135559274445,-0.13106149176920848,33.783699608812704,0.0005373235276881791,-0.009449861370319097,0.0019951317199923897
2.49,-0.9847850711940268,-0.1315347105137544,33.28732025838833,0.0005442930048674269,-0.006588242293333295,0.0024645960101851824
2.4933333333333336,-0.9976298037129092,-0.1357049273684557,32.76431978523043,0.001299187486173777,-0.005444446961824797,9.038851571020246e-05
2.496666666666667,-0.9897150547599617,-0.13512584175417683,32.26711766016478,-0.0004397012676147325,-0.008959248520916202,-0.0010564216578916007
2.5,-0.9882632395575399,-0.1311521999654758,31.77402471187223,-0.002912934212811256,-0.00708620073792826,0.0008967670743517854
2.5033333333333334,-0.9762797318352979,-0.13595048878291457,31.494163445168933,-0.0010708594772463197,-0.007419880038300754,-0.00038463685425965037
2.506666666666667,-0.9993178580923312,-0.134468195900637,31.302049679061277,0.003791807950866321,-0.009661862248076232,-0.002471277949681158
2.5100000000000002,-0.9914416696229323,-0.1363309668014968,31.099206044816118,-0.0034838646384127104,-0.0061775997905481345,0.000765012833685279
2.5133333333333336,-0.9908655960577558,-0.13368981890153622,30.90379370539718,-0.00018798275799990455,-0.005357431947892046,0.0008777099601113298
2.5166666666666666,-0.9915092155249777,-0.12987349823359137,30.70106374354189,0.00033200202090066496,-0.0067259744474482104,-0.0012815431547345548
2.52,-0.9788541818696992,-0.14461583645631243,30.50114301783093,0.0017510060031188076,-0.005508010572424241,-0.0010812682127660893
2.5233333333333334,-0.9869242349194947,-0.13980265768757982,30.362656737012923,-0.0009035405153851553,-0.005787926275008089,-0.0027670224991403307
2.526666666666667,-0.9890184373543459,-0.13567071408058937,30.21415677540975,0.0025300377752708793,-0.007871956708945534,-0.0009190095487187715
2.5300000000000002,-0.9777123391361777,-0.14720653009962992,30.085438817913687,0.0001932937092109198,-0.005195456284617778,-0.00010725803711485468
2.5333333333333337,-0.9867521714160415,-0.13195988881559517,29.953081271974078,0.0021893415891855506,-0.008454675369960194,0.0003514654135689738
2.5366666666666666,-0.984555474094737,-0.1297445480412942,29.814428374650273,-0.0014739465369193177,-0.004595685230889492,-0.0009593239481850213
2.54,-0.982909221995664,-0.13861405113406375,29.680542205610063,0.00318525908386434,-0.007472776770862057,-0.0011906994053807313
2.5433333333333334,-0.9672605346515654,-0.12840953251766415,29.556930055189213,0.0036696434664390083,-0.0009104644544240008,0.0022838290116295006
2.546666666666667,-0.981003458491901,-0.1322707402847716,29.409223872362137,0.002690412086001511,-0.00545013543369921,-0.0018638236969498883
2.5500000000000003,-0.9642060738711824,-0.1341630063590327,29.273591358460514,0.002269016357955878,-0.004881950501943203,-0.0011584626925684738
2.5533333333333337,-0.976467042921982,-0.12947610113759572,29.147192452063834,0.00109808525877027,-0.008835456437758508,-0.00019455210797284805
2.5566666666666666,-0.9785304897964047,-0.12928798926883134,29.00447407196,0.002287811213887932,-0.005352446394652808,-0.000511681090344947
2.56,-0.9616069009854845,-0.12646491075943264,28.86572453599241,-0.003952524713733014,-0.006449104740108479,0.0036964066176381582
2.5633333333333335,-0.9598210140965973,-0.13719329046974071,28.76578120859576,-0.0005680575176844623,-0.004271589030798089,0.0006076069210924879
2.566666666666667,-0.9533481452360587,-0.13164652250725467,28.68851379752818,-0.00196192960969582,-0.007192747710951911,0.0016730884408789437
2.57,-0.9576765111465916,-0.13101733686137193,28.601262792635232,-0.004952062690166102,-0.005873076675724068,0.000560655867627228
2.5733333333333337,-0.9508233746605164,-0.13675517213209384,28.500229871996552,0.0029977737761614515,-0.005910537100580478,-0.0011515400404799633
2.5766666666666667,-0.9585303603900149,-0.14097950426155464,28.416877825816687,-0.003189319050366687,-0.006116238257962586,-0.0012434156010312138
2.58,-0.9404996975374046,-0.12427881169750989,28.342212413373232,0.0006465955843564228,-0.005337080254273349,0.001353266162211325
2.5833333333333335,-0.9465619876708834,-0.12503551175173538,28.23021838508405,0.0025896504514127004,-0.006943233026348659,0.0009556437254444616
2.586666666666667,-0.945307808845181,-0.1346213393148075,28.094492685566735,0.002864327716831078,-0.0055275199373099855,0.0009010371334629504
2.59,-0.945250497095095,-0.1310649402579822,27.973479368928466,0.00044805029738060676,-0.00405555125870124,-0.0007306268146322929
2.5933333333333337,-0.9417229320992145,-0.1398039930869497,27.844046291440502,0.0025061541776993665,-0.0049895750236608446,0.0007268337791040912
2.5966666666666667,-0.9490511949281208,-0.13173187902125105,27.716886007250295,0.00023726773385623348,-0.004534380843687829,-0.0025954407254687242
2.6,-0.9448023200343865,-0.12215528193363596,27.59388181306182,0.0033194779392865335,-0.009213895666029408,0.0030877516756878678
2.6033333333333335,-0.9540958103652623,-0.13224807896669583,27.462314231861303,-0.0002233289034383548,-0.004362068011620134,-0.0002499926805095874
2.606666666666667,-0.9501576383605256,-0.12907304891242505,27.325031842608233,0.0022687738989844576,-0.008004711738372463,-0.001951460786208672
2.61,-0.9376382630079212,-0.1286396165500253,27.186681841947152,0.0004783522091476153,-0.006925003751684624,-0.0008526485893425138
2.6133333333333333,-0.9448253162416772,-0.13587002438913565,27.05212896274807,0.0033102257787158227,-0.005490094860350694,0.0020742253537996574
2.6166666666666667,-0.9456791602621726,-0.1304157382131328,26.905609378548334,0.001725408715320858,-0.008578450324190103,0.00020234844345781635
2.62,-0.946888199766003,-0.11950958983912814,25.338864521980646,-0.0003068819043294226,-0.0071403827988742825,0.001034934962704041
2.6233333333333335,-0.9421030674862455,-0.1277638934825929,26.652516966551758,0.0021912730494904596,-0.007388298348546028,2.652987352461694e-05
2.626666666666667,-0.9608910182062795,-0.1343422243029259,26.527117182824078,1.992948369825573e-06,-0.0068273226706165495,-0.0005132128871347828
2.63,-0.9520343821315982,-0.11768315743800788,26.394841545405775,0.00270414694346322,-0.0035122454621123738,-0.0014747493925836303
2.6333333333333333,-0.9560669191616411,-0.11800367701328186,26.27570547405527,-0.00016169547036997707,-0.005287970907028518,-0.001004237397968661
2.6366666666666667,-0.957976943190236,-0.13032357399575592,26.140899019276535,0.0019720351919252665,-0.0071025889925749475,-0.0016983966115008192
2.64,-0.9594616206289159,-0.13093357282031362,26.014038168041818,-0.00216761844988643,-0.011223675452259895,-4.931080473976826e-05
2.6433333333333335,-0.9586394610263117,-0.13213240436206386,25.88385975528485,0.0005571527208544974,-0.0068864857988788376,-0.0008566210297071626
2.646666666666667,-0.9701094946842894,-0.13532880521538973,25.75854928174267,0.0018836248503083972,-0.006605317509352782,-0.003476402725457592
2.65,-0.9559734655682545,-0.13315242788441356,25.644449397005722,0.0022029348641228225,-0.0054588914045046785,-0.0028596796015694743
2.6533333333333333,-0.969886138192238,-0.14188246905083418,25.50388182859676,-0.0014061006162106185,-0.0033129424592645354,-0.0018268848238591625
2.6566666666666667,-0.962925884127262,-0.13542576678498303,25.377859933301536,0.0008439615873806162,-0.009066021563749785,-0.0031225481995812597
2.66,-0.9724774467063452,-0.13076910643099718,25.252417825791973,0.003035923147748755,-0.009574260650217978,0.003067081298972186
2.6633333333333336,-0.9686649503428615,-0.13239764505122517,25.142972768788308,0.0030245025289438966,-0.008063559186448164,-0.00017818278504435592
2.666666666666667,-0.9796879653969486,-0.1372701506114767,25.032207634268733,-0.0002338709346320026,-0.001770001815747455,-0.0009039522669974045
2.67,-0.9782193249146072,-0.13420457173262548,24.92276999098413,0.00206149836119252,-0.00873912226020245,0.0017890131107652313
2.6733333333333333,-0.9785327879271088,-0.13519699531288681,24.81814412144191,0.001044848416862619,-0.006850970643302476,0.0001405479373762534
2.6766666666666667,-0.9809948186362325,-0.13860436925295774,24.700686432838175,0.0014675050673266478,-0.008313961636521577,0.001576358791164467
2.68,-0.9760042594523983,-0.13795074876138144,24.596677024180256,0.0010632650785007403,-0.005732772040650068,0.0021492984259597493
2.6833333333333336,-0.9843841392438964,-0.13523175548832297,24.49709035323101,-0.0018157959251100897,-0.005080085251423939,0.0003770935921735797
2.686666666666667,-0.9885746984485867,-0.1253261596474506,24.405790088039744,0.0017136974793105627,-0.006327803881567067,-0.0012791858543944132
2.69,-0.9890681689840034,-0.15016192298971023,24.299330013261894,-2.4348090512400842e-05,-0.0098245880879299,0.0019781459323941378
2.6933333333333334,-0.9877322293109586,-0.1198951238154481,24.21339465707582,-0.003044890021456508,-0.005130191375129161,0.00019182000117625876
2.6966666666666668,-0.9854499684631277,-0.13264950541418935,24.11137976770308,-0.001236791897641029,-0.006244367001862076,0.001223167213499322
2.7,-0.9864610541398344,-0.13116900705787668,24.017309755697713,0.0009075060694138904,-0.006725506698783617,-0.0002903259822910415
2.7033333333333336,-0.989366811911352,-0.13632623363790547,23.906891285927596,-0.0009743618559002252,-0.003538510490495441,0.003757623585469976
2.706666666666667,-0.9952297378467936,-0.13651744780360256,23.805441700314727,0.0005336575701795428,-0.009043128188743255,-0.0003250218913421834
2.71,-0.99059973427426,-0.13214029106967018,23.72032608540027,0.0033158240154616855,-0.006309550888372664,0.0004299667617694597
2.7133333333333334,-0.9899112654159141,-0.14593487179552822,23.60866402767204,-0.0007269300700055775,-0.007118155027252901,0.0009216259083677773
2.716666666666667,-0.9913309827895539,-0.14487739068710634,23.522155963552525,0.0022518685608729715,-0.004564337256273331,0.00032398976349347716
2.72,-0.9925708401684946,-0.1296084706706413,23.422446456845368,-0.0007434199103509688,-0.009311251650008344,-0.0033169729897246053
2.7233333333333336,-0.9919479717575678,-0.13038622276162057,23.326168940171566,0.0008645728996110497,-0.005398363084308171,-7.477309549146674e-05
2.726666666666667,-0.9902367553634325,-0.1317226410664907,23.22191705982554,-0.0026314417077368843,-0.006580920077096387,0.004184614976352271
2.73,-0.9881263775036967,-0.13862323039899585,23.118629202698774,-0.0025450865613628497,-0.007455137223508939,-0.0007402305115636955
2.7333333333333334,-0.9840083798174153,-0.12541931050386845,23.024625106091154,0.0015598553741453338,-0.008414356333439703,-0.0007351293226915763
2.736666666666667,-0.9950922421275085,-0.13846587627283155,22.923308098546094,0.0004113986250034434,-0.006816553923963497,-0.0019581657642950942
2.74,-0.9916984003228079,-0.13476448453212111,22.83165616943963,0.00032462522365533063,-0.009718781315437066,-0.0001858040789814089
2.7433333333333336,-0.9895371893855445,-0.1391314564958837,22.73198023224665,-0.0009967587984904673,-0.0042485288698934,-0.001175026140381076
2.746666666666667,-0.9888584085598597,-0.1365769564260862,22.629704592644597,0.001121475893349908,-0.004902349611862389,-0.0005439544922434601
2.75,-0.9834763296839323,-0.12419181485071255,22.54655923273168,0.00140157535434122,-0.006456582617856585,0.003106126669506047
2.7533333333333334,-0.9885212676125008,-0.1421376778440857,22.443224527808898,0.001630635243785403,-0.0058678766784316825,-0.0017037035314049315
2.756666666666667,-0.9905441120244256,-0.1402311214508652,22.35615533518413,-0.0025884199378351617,-0.004558395852719134,-0.0015266319484737816
2.7600000000000002,-0.9893910622480249,-0.13910958859448413,22.251223770638823,0.0005294286157764568,-0.006993359612719312,0.000652009971889796
2.7633333333333336,-0.9788053764963726,-0.13909025968719918,22.168028310824646,0.0009641970424611139,-0.008238985841626575,-0.00043192486560568986
2.766666666666667,-0.9847135394322738,-0.13030341087066777,22.057573351497236,-0.0009007558830517648,-0.005325301364462704,-0.00011241332380388404
2.77,-0.9806898577836213,-0.1384912692710886,21.973260257195754,-0.00040987582994952575,-0.005689385922554434,-0.004078568301322882
2.7733333333333334,-0.9863145631819205,-0.1395137618147604,21.87344209430562,-0.0023282139929679414,-0.005769406935977709,-0.0019602115326797184
2.776666666666667,-0.9932394420183438,-0.13967420414736356,21.776333911183347,0.0016842567427044952,-0.006835582531073173,-0.000999260583820892
2.7800000000000002,-0.9801402403063625,-0.13322158212615642,21.688123257267126,0.0003102484651622077,-0.005924141833049472,-0.0020335355352744094
2.7833333333333337,-0.9914516261035881,-0.1334151908366477,21.596907083750228,-0.001544838869915422,-0.0070285229811008045,-0.0030814210732224233
2.7866666666666666,-0.9742740062315268,-0.135659261724395,21.507381453121777,0.0017692617428808665,-0.00737017827237369,-0.00036130143801098606
2.79,-0.9847858847687324,-0.13254826484224724,21.41855359791708,0.0034294661920211585,-0.005558767919020796,0.0021474883533785694
2.7933333333333334,-0.9932720448144714,-0.1332262765913579,21.32694890233021,-0.0005167794400997715,-0.0027169114687252993,-0.001868353556382729
2.796666666666667,-0.9853300172866171,-0.1275827511613296,21.2532839230074,0.0008118245862953612,-0.002758073738097605,0.00022360202988630208
2.8000000000000003,-0.9904506412896755,-0.14203177053023522,21.1581542246815,-0.0005192330998766311,-0.007938711541123012,0.002659622571861297
2.8033333333333337,-0.9783048092219648,-0.13484681321430192,21.08379489860697,0.0018441589673014146,-0.0049465845049019965,-0.0027998506626550628
2.8066666666666666,-0.9802773504627382,-0.13618144230462723,21.001986832204977,0.0003956025473721719,-0.004596127624043248,-0.00300223636754989
2.81,-0.9832553094978372,-0.13402621051483277,20.920846905246414,0.0007768163335231168,-0.003840327852205713,-0.0003169005370875278
2.8133333333333335,-0.9829662319410372,-0.13529950305427282,20.843120619939153,0.0023634256714775365,-0.007783587277171427,0.0005440833347095752
2.816666666666667,-0.9824349764532734,-0.13541903293558927,20.76462464214499,0.0012251767038636697,-0.004934673986373468,-0.0016465163693825681
2.82,-0.9902567098183417,-0.13107557056928004,20.69249435245688,-0.0007147615430705747,-0.004531931201321842,-8.924687277569475e-05
2.8233333333333337,-0.9906390096404386,-0.12699684244262352,20.60519230592985,-0.0002595990044144132,-0.007822139398431767,0.0029482496100505795
2.8266666666666667,-0.9895668971085245,-0.1334683409020794,20.531306784435277,0.0020518715288129425,-0.010245621711478373,-0.0007499757682053635
2.83,-0.9922646185089212,-0.13671456988443462,20.456951218699263,0.0002395350618167733,-0.005824187774617883,-0.0009938491796754453
2.8333333333333335,-0.9909988698690204,-0.13105788194376328,20.370465406580475,-0.00018776788288602745,-0.005890963671387915,0.0006857831803519072
2.836666666666667,-0.9874084842845681,-0.12521113055445346,20.29289775613501,0.002846624659629192,-0.010079980432267068,0.002781238836342312
2.84,-0.9895219252003968,-0.13601121141634395,20.205155733428423,0.002129363853419477,-0.008437897805865131,0.0016675539059742236
2.8433333333333337,-0.9971958976797355,-0.13190180694090906,20.143418744316325,0.0038124236946686205,-0.009630147113327938,-0.0004980480382193209
2.8466666666666667,-0.9907011323486368,-0.1323782702903846,20.079365353431573,-0.0034014728184524386,-0.009611919905075348,0.0022246865124237788
2.85,-0.9929429270866204,-0.14173377963690018,19.99873061656568,2.9018872264067032e-05,-0.008293146313966056,0.0010593182182232575
2.8533333333333335,-0.9991509648905856,-0.1315569630502741,19.936029368574673,0.0007201458100528211,-0.007887321886650178,-0.001337866957781189
2.856666666666667,-1.002351549149445,-0.1263335067983967,19.860961180754966,-0.002872034816072138,-0.007415950856709804,0.001274214284356543
