time_s,accelerometer_x,accelerometer_y,accelerometer_z,gyroscope_x,gyroscope_y,gyroscope_z
0.0,-0.00448478226105373,0.001148933157758617,-9.76819544639429,-0.0016984700319147155,-0.0005090091843753506,0.0010771229658291398
0.0033333333333333335,-0.0038782238997616745,0.0012525899878554692,7.5872537594234055,-0.0005826183926625687,4.4446263534953464e-05,-0.0016456106708123675
0.006666666666666667,0.002709534527012649,-0.005599097029613335,12.076827305153877,-0.0028582889652180687,-0.00306991515797207,0.0005171271130150252
0.01,-0.004872633155956098,-0.00333454197117113,16.568298476029664,0.0006568632540357332,0.0004997158186567688,-0.0035159739336185314
0.013333333333333334,0.0031119849116021153,0.0061276155513005715,21.066149607234752,0.0013704528294323877,0.0020146014597320523,0.0011385537989123359
0.016666666666666666,-0.006228193272218031,-0.0074362112521138835,25.5809913303682,-0.0033475698991316987,-0.0012988275556339063,-0.00033407009909023125
0.02,0.0022619722243758,-0.0013807200269536964,30.07524361047682,0.001736552062020326,-0.0014287778333375047,0.0010206975850513703
0.023333333333333334,0.009858585332986364,0.007282078543475021,34.56956799626131,-0.003451879645359799,0.0029890207890871726,-0.00012062757030689639
0.02666666666666667,0.007617252904931034,0.0012292405949098151,39.06551414719831,0.0012220442195099558,0.0010279348231736125,-0.0002565324557370514
0.03,0.0022331020241831943,-0.003911066009468736,43.55470664526261,-0.0009015759531477919,2.9551198036288162e-05,0.0017346367000179047
0.03333333333333333,-0.002429107710185331,-0.0011465002780759789,48.05485365750767,-0.0008716685895184427,-0.0004179301151485311,-0.001422110190776671
0.03666666666666667,-8.168760759917263e-05,-0.00034964621374627763,52.54315417544578,0.0008460382309191316,0.0011833988881645682,0.0017560312189558612
0.04,0.0020816845652471662,-0.006337860152306887,57.042773878968205,-0.0035136277336668413,-0.0003242043494198577,0.00015246739485437103
0.043333333333333335,-0.0033694548879760916,0.004297536238149194,60.90646438079243,-0.0026888918623651985,0.0016683217725682845,-0.0001505066210013702
0.04666666666666667,-0.006158075194964548,0.009920254493226283,64.71930348602206,0.00123122787823768,0.0035589110245768728,-0.0006111490648607905
0.05,0.0038581487591296958,0.0054441595982989855,68.56555740744928,0.0008860050239563603,0.0008433202685334525,-0.0011351285062784287
0.05333333333333334,0.0049795289909446054,0.0017034166443480952,72.40857825593628,-0.0004244746554135013,-0.0007225394067929118,0.0020943539329105563
0.05666666666666667,-0.0019856621757748283,-0.00016403738485778842,76.24254711776264,-0.0002729354877359306,-0.00027212165301913335,0.0022058290038826406
0.06,-0.008769808252664112,0.004201133347069065,80.08389869569784,-0.0016011542995245827,0.001720935588999839,-0.0016124227597961115
0.06333333333333334,-0.005606623195357499,0.0031554163723818787,81.27357850368728,-0.0008892186578704433,-0.0008484968466383971,-0.0016235657144510448
0.06666666666666667,-0.0020624690300991033,0.006244339511932178,82.39293020039568,0.0013746096489538062,-0.0027835704323778657,-0.0006580919024685441
0.07,0.0011180150639590848,0.007972941705293215,83.4984398983403,0.0012671261396586338,-4.8320849998095474e-05,-0.004070394585318744
0.07333333333333333,0.0034666249052141152,-0.00015997727053410383,84.62161309070589,-0.00044508429512508675,-0.003176298702283979,0.0025984269922559537
0.07666666666666667,-0.003981157895642963,0.006857265193710818,85.72476692491409,0.0007333696243928707,-0.0012268824441031795,0.0022570386656031796
0.08,0.0014117567418610287,-0.008762535684657811,86.85095233853512,-0.0008227071484987754,0.003036994073533928,0.00014427197304882867
0.08333333333333334,-0.0003881698968148497,-0.005419156818233897,86.67900699441164,-0.0014956931410947875,0.00011793843036145072,0.0016973340324658525
0.08666666666666667,0.003498757082321247,-0.0008654625316443715,86.48125591253317,-0.0003265995433935995,0.000895294900451775,0.0008822139421238538
0.09,0.01191603079236552,-0.0015318728242651792,86.28886368728516,0.0016567825307942203,-0.0018712857856553412,0.0031940817244498648
0.09333333333333334,-0.004110161342632246,0.006289523336176482,86.07553814675931,0.0002807718785069288,0.0002877322520758406,0.0006500303736642406
0.09666666666666668,0.0017047846131083013,-0.007988813494016282,85.87504143646177,-7.61219224448463e-05,0.0008436278691806456,0.0021063214088530412
0.1,0.003402377206307329,-0.00046087861325289005,85.67617133096036,-0.0005257161747012174,0.0024000503647567326,-0.0013503383368726253
0.10333333333333335,0.009482092118288219,0.0004198261138218925,85.50568703522681,0.001124036252222157,0.00038427860618550744,0.0008232620186969562
0.10666666666666667,-0.004855696546993942,-0.0037839581511841408,85.35166942389526,-0.001746105373244549,0.0022228392430739177,0.0020733863118653027
0.11,-0.004407136495503171,-0.0015941732035150234,85.16979687251458,0.0006196665579352727,0.0022509435649590995,-0.0013826622979810851
0.11333333333333334,-0.0018718436853993009,0.0084552135665465,85.01231552252932,0.001157999118027756,0.0009428005859902862,0.001596170873117264
0.11666666666666667,0.002640064519481026,0.00025641148732165683,84.85300981572688,-0.0004417598262718171,0.0019211866337554328,0.00550166518339542
0.12,0.003894696894879532,0.0009060629692440679,84.6835075756415,-0.0012867909588045346,-0.00109979485354433,-0.0003364145966890341
0.12333333333333334,0.004260431238338895,0.003378774220790517,84.5969095316389,-0.003002787724345131,0.003147925861994666,-0.000474736852514407
0.12666666666666668,0.004183873001030816,-0.0034538510252510105,84.50049373635383,-0.0006621957565698508,0.0004954742325906829,0.001199677074923503
0.13,0.00026977142407898864,0.0026581456431906242,84.41414833258168,-0.0037187512114383887,-2.084567558411943e-05,-0.003943694981509083
0.13333333333333333,0.0078032318431929424,-0.002850258528152298,84.31600074302095,0.0007409717901958624,-0.0001733662621831835,0.001163326828618626
0.1366666666666667,-0.00417259978508833,0.0013289836742020429,84.22648685963583,-0.0007419420574597793,0.003470718296921215,-0.002626594093598248
0.14,0.0025254936615743814,0.0035025322573358575,84.13492500044394,0.0052669641137113475,-0.003120038568742492,-0.0008165696067400777
0.14333333333333334,-0.0034694005176060558,0.0005529329289978533,84.13436537226443,-0.000980170123795098,-0.0008557959465114719,-0.0005723023098168642
0.14666666666666667,0.006849482269744913,0.01000802464852016,84.12262039669837,0.0011571208429030516,0.00022058206207397612,0.0012686530301446797
0.15,-0.004711772428214444,-0.005785012379757974,84.12434960793283,-0.00378959309180358,-0.0014549720344904152,-0.0027550173229429122
0.15333333333333335,0.005433915381281607,-0.003256378418490958,84.12991404652148,0.0001562366211025547,-0.0015756540380731055,0.0001836098740195363
0.15666666666666668,0.00197670999587293,0.004389163772445054,84.12886904274752,-0.0005244578760392705,-0.0007496966879074914,-0.002111657980827448
0.16,0.004745898299380721,-0.006380532433717869,84.1382576427389,6.488676644982645e-05,0.0014055204146445122,0.003145726078543934
0.16333333333333333,0.01089275210488527,0.0031194047492988735,84.17855581218116,-0.0018795116843406312,0.0017585881677966658,-0.0007199432171827764
0.16666666666666669,-0.0016289970523217605,0.001485041688288549,84.22414900186553,0.002956120985469617,-0.0028013147737289954,0.0033837544761916166
0.17,0.010632352331393192,-0.0057105879269915795,84.26071960714538,0.002661668859677246,0.0012085489135160881,-0.002409598189503112
0.17333333333333334,0.00034428502787370855,-0.005626225786754122,84.30534948930323,-0.0005361546087966016,0.0010906916179132117,0.0009790127502252231
0.17666666666666667,0.002814293646945625,0.008469099597088652,84.341408349122,0.001299079525940562,0.002502457493898187,-0.0014681991324095127
0.18,0.005261310246272816,0.006634052109721401,84.38439642503212,-0.0031423210421430503,-2.0341563497851984e-05,0.0038039617564280207
0.18333333333333335,0.007518142789375539,-0.005861838820507446,84.37473923789437,0.0013270783690064098,0.0003068546689620426,0.0007349543457727419
0.18666666666666668,-0.007834595983495424,0.006890901649796418,84.37230923665938,0.0010331912580773604,0.00014269710576777183,5.7428796117759385e-06
0.19,-0.000837796345234827,0.0016893548268295136,84.36427958300509,-0.0019616360094632974,-0.0010797948103546508,-0.00114562330522717
0.19333333333333336,-0.0010591762421548363,0.003181242952275638,84.36481279446716,0.0037855960295267786,0.001638857151427533,0.00028248748589824785
0.19666666666666668,0.0006426255901982789,-0.009001780961149595,84.36268958886282,-4.897260025270949e-05,0.0017015790311323662,0.001131213992073231
0.2,0.002442861087263002,0.0010925292125496318,84.34765638711355,0.0013812076927332425,3.320265059187812e-05,-0.0006073717327021849
0.20333333333333334,-0.009758911289505168,-0.004780234670142944,84.35880551314717,0.0017081214799902155,-0.00039564901327556726,-0.0021234703659696492
0.2066666666666667,-0.00032715400002826165,0.002016400459898977,84.37048091748551,-0.004088469438117409,0.0022225561125054634,-0.002716300996412833
0.21,0.0016248562097382997,0.0008589283487658735,84.3812447093528,-0.00044570026321832435,0.0011966645851657568,-0.0015522472544411726
0.21333333333333335,-0.0011910649833227827,-0.00026554873206919406,84.3924899318534,0.0017360992181728009,-0.001089979310240588,-0.0005199432174057118
0.21666666666666667,-0.006261670970547795,0.006658332642843128,84.39434560741398,0.0007291225538351403,6.846728896243991e-05,-0.0021728735189518477
0.22,-0.0012220424891141903,-0.0010534234725152842,84.41673602346798,-0.004340875600260144,0.0015284157852092422,0.0015435051060715612
0.22333333333333336,-0.007166183446088637,0.010252003652978035,84.43026091892048,-0.0008807179572919701,0.0004086484785019972,0.000276774792595728
0.22666666666666668,0.0031105653261250007,-0.015081337470104528,84.44301196828903,-0.001215026288621047,-0.004264408406413334,-0.0010090030495147066
0.23,-0.0041986580585730736,0.005004891955794513,84.45454295780178,-0.0011261549577587034,0.001187419336325428,0.0005045641798589259
0.23333333333333334,-0.00453525893267559,-0.004617966692056737,84.46824002278477,-0.0030041874305050003,0.0005556107795867157,-0.0004896914107937045
0.2366666666666667,-0.007142437928342289,0.00522197884495471,84.48632631347819,-0.0018614698961717505,-0.0007982666821624303,0.0012263952267613494
0.24,-0.0032197117214913793,-0.002400748401325043,84.49888092199775,-0.002995343508176015,0.0029166171413223477,0.0004985989030039823
0.24333333333333335,0.00430920992955004,-0.00214914450626991,84.51727091455868,0.0020787469482961628,0.00192954436001433,-0.0003391751740819942
0.24666666666666667,-0.003341070377640228,-0.0031722555410521242,84.53412177228651,0.0019344278480643352,-0.002953890337352023,0.0012908337331324672
0.25,-0.0021760580954915945,-0.005428477239608764,84.545935795802,-0.0014387775021020071,-0.0033884895231032163,0.00246651193997389
0.25333333333333335,0.007734278760827262,-0.006747103339925699,84.55236826867247,0.0012187762713388149,-0.0008138611113660652,0.0010902162451490052
0.2566666666666667,-0.004037985222214927,-0.005682978761469216,84.5598718530157,0.0011692124607076595,0.0013694353759699928,-0.0008656155140460514
0.26,-0.0036399176099699863,0.006348837979070684,84.58104520517291,-6.524284178754013e-05,0.0008031118998075918,-0.00126044854314545
0.26333333333333336,-0.0018151530862311857,-0.006478827899571214,84.62974700708865,-0.0037493340361132222,0.0018307448666702753,-0.001176970252598051
0.26666666666666666,-0.01451535091045011,-0.00881698670075315,84.67807907386322,-0.00035707004406972456,-0.00313386179777485,-0.0028143971237065894
0.27,-0.007177141998935734,0.0025228830579921446,84.73185562473783,-0.002847003177389259,-0.0005256959636383068,8.79976071474679e-05
0.2733333333333334,-0.005054417316629855,-0.0028658804070613745,84.77531250430582,-0.0009333582421209079,0.002811248645497023,0.0005039314838479075
0.27666666666666667,-0.003420071308514493,-0.003183615872694668,84.83035292581627,0.0021488049841507386,3.747496026467297e-05,0.0029824728770307986
0.28,0.00561536418594455,-0.007993260205857083,84.88053213228987,-0.0010597371687653624,0.0024228961025827794,0.0022165873586147975
0.2833333333333333,-0.00047712431684741164,0.0015896745707667437,84.93050319999787,-0.00167755529808931,-0.0006513009178022272,0.0016165835840522978
0.2866666666666667,0.0020394119505572376,0.004461598832942709,84.97273208181024,-0.0004924638465537702,-0.0018128285539816017,-0.00011458276198808868
0.29,0.0009166387697277429,-0.008368338311149246,85.03159911418817,-6.92795498432461e-05,-0.0035539890123872423,-0.0003357918693957584
0.29333333333333333,0.0064179443242450545,-0.0008245675818405067,85.07884038930351,0.002136027948047395,0.0016543158412980145,-0.0028694607527489607
0.2966666666666667,-0.008274710006258096,-0.00546768297684644,85.12598742873247,0.0011854551152387898,0.0001646885843309154,-0.003974184296517043
0.3,0.0014577898017167402,-0.00439787400293784,85.18723191390744,-0.0012827196948603876,0.002000057089404497,0.003167800446581203
0.30333333333333334,-0.001486814247986324,0.003165570106772566,85.22900132709454,-0.004124931053397383,0.0022897428186572574,-0.0004984814470707289
0.3066666666666667,0.002746678905522524,0.0010157817545319219,85.27858079066314,-0.001737359402192044,0.000452621894076921,7.31543537022589e-05
0.31,-0.0060264104054012,0.007532071697945286,85.33105490434748,0.00106876165560834,-0.003742039346284507,0.0009491454273641638
0.31333333333333335,0.0028185814795381515,-0.003995957276452017,85.3731053631,0.000407091041349498,-0.0012230191585865787,-0.00234109024478618
0.3166666666666667,0.00042898509251287556,0.0072158289284831555,85.40545147111493,0.0006177849120614792,-0.0005733518602550377,0.001136110371858729
0.32,0.00541743974528701,-0.0038065461728848636,85.47464725911145,0.0032257603212490463,0.0025218644248758337,-0.0014535851625037928
0.32333333333333336,-0.004628121021712669,0.005116262088155227,85.52370830944547,0.001150892729255153,0.0007986701386441134,0.0024520044457222033
0.32666666666666666,-0.009388353136141897,0.004378504015323637,85.57141676428621,-0.000769146051861115,-0.0008207640799702963,0.000334251587885715
0.33,0.25831892875381707,0.15577421302251226,85.61263852925035,0.00034922425847056063,0.0012925360656491458,0.0027517806844297925
0.33333333333333337,0.2573623146273326,0.15210789360216162,85.64891185701677,0.0021725139970568525,-0.0012276767248600357,0.0009071533550396497
0.33666666666666667,0.26061686102517545,0.15512105462594214,85.70687718873515,-0.0015675591478073194,-0.0033269975631032207,0.003320760363337209
0.34,0.25294804682853966,0.15382374610085361,85.75093651472494,0.003152775404188096,-0.0046932975021855994,0.004094091400617553
0.3433333333333334,0.2694843858140237,0.16148475145971675,85.78975858290977,0.00022647040341112817,-0.005329561754734237,-0.0019387936189704871
0.3466666666666667,0.268741337777206,0.16601924632624357,85.81794076543915,0.0030067350261372802,-0.00388789593310171,0.00027757636642583344
0.35000000000000003,0.2705599376350529,0.15430537969855296,85.85124497567055,0.004613250041551135,-0.007774079452786574,0.0026839829106778284
0.35333333333333333,0.2679859726887953,0.1565008607427086,85.90286852712381,0.003368619673968992,-0.014384608952863495,0.002197169005118231
0.3566666666666667,0.27335835004806186,0.15589648694815708,85.93432283780298,0.00036152444195367527,-0.01080041851080432,-0.0011343551452477059
0.36,0.2732752129215372,0.1597837920435942,85.97541051946476,0.002751664988831568,-0.01200970086147969,0.0009403748076747484
0.36333333333333334,0.28934905857759874,0.16879244092201529,86.00412809762057,0.004097227770731647,-0.015950618233606547,-0.002918854727460288
0.3666666666666667,0.27725087259720205,0.17027096373596934,86.05253789764198,0.006746345659018573,-0.01942103837225,-0.0029676878966243677
0.37,0.2779180423056792,0.17157818260411783,86.09779427890804,0.003392223829950572,-0.019577454685066057,-0.0010309584219750523
0.37333333333333335,0.27656051870776527,0.17232216578359444,86.13506859521677,0.004903097998574839,-0.022417916995309598,0.0027683039328896923
0.3766666666666667,0.27834851480377915,0.17284057700659058,86.18401293144929,0.003997255830141884,-0.019924603980185713,-0.0006926961339608572
0.38,0.279355306809451,0.17282594930891043,86.21784575238786,0.004251789595196396,-0.021447236943949774,3.0052926970197886e-05
0.38333333333333336,0.27579540422302756,0.17771237218265246,86.26085090103784,0.0066906912801640754,-0.028062114858352177,-0.0016585934610482862
0.3866666666666667,0.28785675563123125,0.17215198270143028,86.32081918625518,0.005146873399307668,-0.026847916660478737,0.0015475408298761296
0.39,0.2826512819486113,0.16830008230432972,86.35823355187559,0.00584022346096496,-0.030690746534431452,-0.0006583348056414949
0.39333333333333337,0.27985486830158973,0.16919640815838188,86.40618183501158,0.004010597342224491,-0.02796385127430017,-0.0017603140073644778
0.39666666666666667,0.29305528636748374,0.1706306401777897,86.46220882736978,0.0059695177136332,-0.03269762649385863,-0.001120922994809561
0.4,0.28618665470771876,0.17265002498908055,86.50991122189824,0.006211163672618501,-0.030650237376847675,0.00045595581075883314
0.4033333333333334,0.2815872780493706,0.17066366854103965,86.60742620649889,0.007687541001360085,-0.03583845388412648,0.0004159044079911732
0.4066666666666667,0.28208582211812466,0.17816154969485617,86.73394910599856,0.0048678321159014585,-0.0345083388460492,-0.0014382819151700932
0.41000000000000003,0.2770220944278125,0.17530537650076863,86.85174148813898,0.006308245839552601,-0.0392259941792583,-0.0005336544344750318
0.4133333333333334,0.2757689594930011,0.17272618876543128,86.9629820375247,0.007022546656905587,-0.03753371894874243,-0.0007514816562808489
0.4166666666666667,0.2813109859889829,0.17494563171352953,87.0739623596558,0.006218937422662906,-0.04069553135617096,-0.0008188421267345495
0.42,0.28232803716858174,0.16862496061699234,87.19313553966815,0.008018237959508118,-0.043342649716130555,-0.0005668121123586982
0.42333333333333334,0.27967832890597494,0.1751908773326677,87.25513685085782,0.011163263953071337,-0.04362720553441967,-0.0013336725898596587
0.4266666666666667,0.2787703087163277,0.16588185473635383,87.28842611812624,0.007764977148158627,-0.044668602953139985,-0.0019121146471175743
0.43,0.2715710193003305,0.17087988134412851,87.31924681050981,0.008351999734322688,-0.04780142567104539,-0.0026046749872131593
0.43333333333333335,0.26782495715006516,0.17798779522007194,87.3691367817453,0.010371331261699887,-0.048765670642306795,0.0009607880272116924
0.4366666666666667,0.2763605227881867,0.17584466275618674,87.41231345840241,0.008855316870701978,-0.04809999402368843,0.0006613591047295164
0.44,0.26868060185276615,0.15791587830518947,87.4420315663268,0.010364980261574716,-0.053950877572044365,-0.0014903307015039242
0.44333333333333336,0.26280041374760743,0.17520604904690895,87.5082258164472,0.011653847265077621,-0.05377188197053713,-0.00038834211292316893
0.4466666666666667,0.2573767291388827,0.1725539090744208,87.55622464986892,0.01243315555930544,-0.05452325241483465,-0.0021293978950243622
0.45,0.2611820549965578,0.16467119698855015,87.61000231682102,0.01190190831855421,-0.05876951391927434,0.002327039155890184
0.45333333333333337,0.25044736442390425,0.1734962149525178,87.66698857518755,0.012624623812277394,-0.05309602133209594,-0.0019462039038273004
0.4566666666666667,0.25138320849224643,0.16765466608553997,87.71783778028961,0.013163027503946732,-0.0630243054404302,0.00013023110873065723
0.46,0.25506146185460377,0.1646433535011586,87.78033380322542,0.01428262074011982,-0.0641927370769918,-0.0031336734058190364
0.4633333333333334,0.2466845128070321,0.17484082016319585,87.8170974028786,0.01308669923435878,-0.0629435908395586,-0.0007095051967393626
0.4666666666666667,0.24572163288602064,0.16531074057806652,87.85966961508372,0.01137501775353036,-0.06471910263250424,0.0009149196766130971
0.47000000000000003,0.238651021847978,0.16586002401011105,87.89552313218756,0.011645467758068446,-0.06523822860707308,-0.001695383468482724
0.4733333333333334,0.23263523490407637,0.1571436914123296,87.92772518797332,0.012819206590835307,-0.06772596168467526,-0.0017862149557593722
0.4766666666666667,0.23601899571500862,0.16199950968778723,87.96808486685389,0.01231259430354584,-0.07030362581929779,-0.00234890595496117
0.48,0.23368064576045652,0.1585524969287499,87.99793824417729,0.012878859166462914,-0.0703177461157271,0.0005138396429854173
0.48333333333333334,0.2175153324807483,0.16234998534652972,87.99057360689106,0.009862911273901884,-0.07026492413532766,0.001975255581486215
0.4866666666666667,0.21326819439403888,0.14674328155002989,87.96122855725405,0.012332372534599682,-0.07284874578033959,0.00012883138276870943
0.49,0.20404068426126834,0.15378027753810133,87.93598537636531,0.015187326844077795,-0.07557376897704056,0.0013393897565861072
0.49333333333333335,0.20108144545186193,0.15871504617524004,87.90873463021528,0.01742583950693719,-0.07804322444393369,0.0008826522282482217
0.4966666666666667,0.19928646657632776,0.15143738578816812,87.88739195228155,0.013805419318355685,-0.08124287812378832,-0.001252259594904116
0.5,0.19622596548631766,0.14405154122641425,87.86429708011812,0.013979545852040915,-0.08506850985671924,-0.00039108677979765404
0.5033333333333334,0.1869911047265027,0.1554241919709724,87.91908086805635,0.012832438021183548,-0.0816423122972453,-0.00017319642138756
0.5066666666666667,0.19185542446471332,0.1508950833714775,87.98624807929218,0.015465609044600185,-0.0835937585241626,0.0005144292893532737
0.51,0.1595225344660759,0.15346971279071833,88.07380746500527,0.01448348318620691,-0.08671356777808295,-0.002057757770205745
0.5133333333333334,0.17455314487828413,0.1399230822362267,88.14939157629549,0.01794559943677228,-0.08846246428498233,-0.0011513219163954535
0.5166666666666667,0.15209393575163144,0.13862966860006987,88.23087517579636,0.01883800005828409,-0.08813378299956183,-0.0019453951016704682
0.52,0.1499114544117669,0.12696823472926938,88.31297096000452,0.01914728841342218,-0.09053327448988498,-0.0005954197589074942
0.5233333333333333,0.14073396856683415,0.12964194118839897,88.38383483522595,0.017998387477330548,-0.08866917798985999,-0.0013973660641860416
0.5266666666666667,0.13877863964222953,0.1329690896143174,88.43820755649557,0.019689931399626742,-0.09514841681212029,-0.004739160113234587
0.53,0.14001627943004624,0.12591162908698167,88.51282807363101,0.01635738562757811,-0.09445375080699622,-0.0009480077965730412
0.5333333333333333,0.12006886040816932,0.13197832280329327,88.57982187266745,0.02016637820431292,-0.09634296699104133,0.0030568665975680056
0.5366666666666667,0.10235421350692078,0.1254644690981986,88.65310183810838,0.01995392762528435,-0.09649021916574604,0.0002690962325328737
0.54,0.09501935413693417,0.12116420002632204,88.71718434913207,0.021548938904506747,-0.10159913672360668,0.00013518196454243093
0.5433333333333333,0.09368896534234711,0.1106916089942863,88.78888511291832,0.02031492532061367,-0.10186853336075116,0.0005979205035051691
0.5466666666666667,0.07112238360663563,0.1205016520025698,88.86779038575378,0.02028437224829272,-0.10407546281156133,-0.0008832270091812401
0.55,0.06331895469305425,0.10349144880562995,88.95672807456316,0.018159817056170067,-0.10118121082227867,0.0014714063775739604
0.5533333333333333,0.06048496328397149,0.10472163347066923,89.03433442241749,0.02205726030380367,-0.10767882938421874,0.0006301171318321315
0.5566666666666668,0.04634633418393324,0.10424584699158436,89.11487544606472,0.021883984888479625,-0.10348291065057519,0.00217618326528909
0.56,0.03051300084159761,0.09723482849794203,89.20228382468025,0.020976959393830277,-0.10862274551257528,0.0017412553715744565
0.5633333333333334,0.026833535608463143,0.08905779061168982,89.27410752408011,0.021084759920792374,-0.10627310606192357,-0.000711946756706053
0.5666666666666667,0.01992784337928024,0.09301939319852129,89.33297966511819,0.022294204605652297,-0.11279410994158327,0.0010176214279824477
0.5700000000000001,0.006849156678238124,0.08780001805893392,89.4043803550733,0.02248581825943329,-0.11245088951522693,0.002350862085183623
0.5733333333333334,-0.001738730079353728,0.07629661484623276,89.46846256587598,0.019196008259468055,-0.11474991091187656,0.002468935574283231
0.5766666666666667,-0.019515789001315398,0.07382758774864015,89.53119713932546,0.02157242957799129,-0.11581331790882825,-0.000823652728215194
0.58,-0.028759066234612978,0.07442924419118936,89.60168656367004,0.02277469450170706,-0.11621843241062584,-0.0011220143679729047
0.5833333333333334,-0.04122942122915907,0.06634404185319827,89.65468669172665,0.024682787092272156,-0.11227019195648152,0.0002883424872186823
0.5866666666666667,-0.052665182138765074,0.057315646736495536,89.72690744472025,0.023549371267057112,-0.11453597680465225,0.0009845294174970608
0.59,-0.06064148680527673,0.06280742818814536,89.76954611881095,0.024970978047901556,-0.1208273661637823,-0.0008921054153955722
0.5933333333333334,-0.0840849442646366,0.04663759447360406,89.82782233927274,0.020259231394568967,-0.1195325665327333,-0.0012400952000244522
0.5966666666666667,-0.09450254734361833,0.04256305358439155,89.87178444024728,0.023791445380537377,-0.11940215336485777,0.0008336577960125387
0.6,-0.10479117257474238,0.038692614164555945,89.92838881990852,0.02786348723548616,-0.12076961481903525,0.000869281465113652
0.6033333333333334,-0.115239415393492,0.03946110518763966,89.98267016753354,0.022164524985182343,-0.12338094454809288,0.0011500761591518268
0.6066666666666667,-0.13819016571184348,0.04163497737113804,90.02893312708422,0.025532132306219896,-0.1232847226744464,-0.0019295267576038824
0.61,-0.15604442408235536,0.023526084752284175,90.07817996140899,0.022994334079496182,-0.12207029638990614,-0.0008373788425351201
0.6133333333333334,-0.16184131217136288,0.013418124057013606,90.12670852849969,0.026418850026771665,-0.12668279644886873,0.0016132239742638122
0.6166666666666667,-0.17534793005426502,0.01447225567103733,90.1846345252746,0.022584194830332752,-0.12688359599031296,-0.0012334850787609531
0.62,-0.19085775167640054,0.002788841647329907,90.2149130004401,0.025329092215279986,-0.12465551231228666,0.0009059516082845099
0.6233333333333334,-0.20293698815186312,0.0024703869037904797,90.27698534140448,0.025037674663856847,-0.12535858622995288,-0.0011311576089673243
0.6266666666666667,-0.22995365505804652,-0.009665688303311434,90.35357660561343,0.023652598069057,-0.12760505558602442,0.0005953793035021888
0.63,-0.2375490891157608,-0.019342352102593545,90.41045068535273,0.02033645428326613,-0.12615572982478776,-0.0008645401775224607
0.6333333333333334,-0.25477693069315543,-0.019260473067352082,90.46220558364276,0.023338426031459494,-0.12906400726924558,-0.002139423878562572
0.6366666666666667,-0.26354643444047265,-0.034848493689291105,90.52503757180963,0.02596412453640633,-0.12846608886629649,0.0011409762321308863
0.64,-0.28201910111326606,-0.030628427504199137,90.57820393001217,0.024616523162724595,-0.13070274404939594,0.004016117691437186
0.6433333333333334,-0.29239004406957414,-0.03250046025553544,90.67327533678557,0.024470112979375645,-0.12945533229134262,-0.000836585370164794
0.6466666666666667,-0.3248987627981621,-0.040006402552356275,90.76048733861447,0.024767993810234465,-0.13404160521706002,0.0030923157094997103
0.65,-0.33272293252238416,-0.04401636901956264,90.85261070212859,0.027685447619984104,-0.13217327438808082,-0.0012527808536010653
0.6533333333333333,-0.34721648030132846,-0.05054571395717664,90.93060285981062,0.023998291821179137,-0.13105266061948995,0.0010236858956765625
0.6566666666666667,-0.36836490431927027,-0.06277615116581398,91.02069256826293,0.02204831841679202,-0.13306252888190287,-0.0011821980258032313
0.66,-0.3828116085619152,-0.07104219074223202,91.10315719790371,0.026405367454186486,-0.13260547728878624,-4.631276273706032e-05
0.6633333333333333,-0.3979740692258209,-0.07506563304369261,91.19551414206269,0.022598977952127675,-0.12763941680071905,-0.0008730446292687415
0.6666666666666667,-0.4024095938169705,-0.08543989424749336,91.29724926257379,0.023346291436988412,-0.13252617527975316,-0.0003759286540104722
0.67,-0.4306519668757192,-0.09878948362005145,91.39929424151356,0.023775025453518495,-0.1346861114454444,0.0014347142681945028
0.6733333333333333,-0.44641103966462203,-0.10484068297079062,91.48603606313459,0.022704012623808254,-0.13047760109963938,0.0001430504515436438
0.6766666666666667,-0.47230191470951927,-0.1105705463976738,91.58999488861672,0.02525370741791941,-0.13137345246960985,-0.0003052467702157677
0.68,-0.48047359036537546,-0.11283056073571084,91.68377256071534,0.025866244788012388,-0.12869722722474242,-0.002084368723006928
0.6833333333333333,-0.5102611145260652,-0.11880491834130051,91.79591767385321,0.025399682075546538,-0.13119127007468695,0.001379823907147619
0.6866666666666668,-0.5238839340635232,-0.1195731344276076,91.9120265636924,0.022795877398879248,-0.1314892057984784,0.0014340547476254203
0.6900000000000001,-0.5297414759141221,-0.13808005911237692,92.02055719911868,0.025221808766531916,-0.12930615154818106,-0.002656732215071072
0.6933333333333334,-0.57024122150241,-0.14129292975524255,92.1380814384967,0.025447287229872422,-0.12894378788197725,0.00110153217549714
0.6966666666666667,-0.5720552077394422,-0.1567501842703511,92.23822384754611,0.023829512555195626,-0.13245120961512707,0.0023158979403035485
0.7000000000000001,-0.5876664125959971,-0.15752808551610217,92.35322018850758,0.024127987464685585,-0.12743969549311196,0.0017635376550337682
0.7033333333333334,-0.622537096987788,-0.166238269093392,92.47369641256093,0.024000368166782002,-0.1298428877858719,-5.5341944885606346e-05
0.7066666666666667,-0.6399771911977901,-0.16429855424541373,92.61054165131505,0.02426681143211027,-0.12835032071157013,-0.002375423253337107
0.71,-0.6450757853256219,-0.17712605806147774,92.7245015520363,0.02436784176965831,-0.13110232476095235,-0.002699335311573641
0.7133333333333334,-0.6745981115258737,-0.1943400811792709,92.85217500928484,0.022344032521183763,-0.12635703760084543,-0.00024234650708476464
0.7166666666666667,-0.6891751337901411,-0.20321940635693386,92.971371602605,0.022193427569121092,-0.12279682763774036,-0.0038633617447341078
0.72,-0.7110150411312857,-0.20720339005566302,93.0964934003061,0.023962695240078272,-0.12549448699147886,0.0016328652163611923
0.7233333333333334,-0.724180714350342,-0.21283188438030562,93.22763017434461,0.024408248319681868,-0.1259439923498828,-0.0013049830248884253
0.7266666666666667,-0.7424482019663873,-0.220349903598656,93.35581013604009,0.022746401123914368,-0.12248827843440388,-0.0006636147820705096
0.73,-0.7563384422101214,-0.22284024650613155,93.49530851155625,0.021618891692774124,-0.12139506086600065,-0.0012890064627536551
0.7333333333333334,-0.7853029538542765,-0.22994462436039065,93.6169726703221,0.023696140094700942,-0.12126518586259549,0.0013557962468186116
0.7366666666666667,-0.8018390103656469,-0.24290232746333518,93.75858397165527,0.023099610611121348,-0.12217983802370795,0.0020355557962515856
0.74,-0.821563130415598,-0.24889469179210047,93.88191471695262,0.023654553459777516,-0.11625126285610055,0.001469531061177824
0.7433333333333334,-0.8389953925582219,-0.2525040271921096,94.03082607245821,0.022383543131221317,-0.12082645078370592,0.0014159170472330107
0.7466666666666667,-0.8519516219517391,-0.2686720344452896,94.16052641958967,0.02470164795817604,-0.1201349329823603,-0.002457521232213299
0.75,-0.8723337604118855,-0.27090292281710077,94.30640346273441,0.022065673532036985,-0.1173578115479319,-4.239256880664352e-05
0.7533333333333334,-0.8946387251450393,-0.2806278057428025,94.44598515659547,0.01729474227987287,-0.11402501800563063,0.00037648226661248
0.7566666666666667,-0.9118086162479777,-0.2957434599609043,94.57824358598319,0.021446685911883975,-0.11303261673050163,-0.0017728550212250027
0.76,-0.9293352275171706,-0.29350690886953307,94.72372692275171,0.020276142965293637,-0.11289260396124676,0.0005007089418955626
0.7633333333333334,-0.9552190595911141,-0.31661914948328357,94.86428092389701,0.018855642632981843,-0.10907563496645904,-0.0006046709405917625
0.7666666666666667,-0.9725884084346087,-0.30738671666767936,94.9998637669373,0.022027246261230187,-0.10804745885597866,0.001381043207797608
0.77,-0.9945249747087267,-0.3177221342102533,95.13825399523678,0.018059991009056725,-0.10988882412875534,0.0003119200839231528
0.7733333333333334,-1.0012650751601655,-0.32685586282737045,95.27985406382656,0.017841708588047248,-0.10733511898176128,-0.0006004232898722999
0.7766666666666667,-1.0201034839474292,-0.33407814143828246,95.41821790122643,0.015148718731004058,-0.10635581081694995,0.0019570043288783174
0.78,-1.0358850397201285,-0.3363031771369987,95.56106743570727,0.020953724648694626,-0.10347258409462466,-0.0022671894491575104
0.7833333333333334,-1.0541784987112024,-0.3419128152958126,95.68086562143368,0.01931334332079562,-0.09829864892278352,-0.002252562534730147
0.7866666666666667,-1.0669812319035592,-0.355522756474969,95.83098192740853,0.01965507758966493,-0.09962152361979333,-0.00042435879350614155
0.79,-1.0749944912160576,-0.35997374473075844,95.95356449550462,0.02117043288059836,-0.09920099780631797,-0.00246408611737236
0.7933333333333333,-1.096172509553441,-0.36321622520788305,96.08360784825268,0.01787318615185245,-0.09724198477310482,-0.0006585863298436082
0.7966666666666667,-1.1292500285505704,-0.3736606015341339,96.20930690919138,0.014189134847662536,-0.09401165504498664,0.00081393144073061
0.8,-1.138558568483717,-0.37191795661397226,96.34141003523675,0.016339078879241017,-0.08901912660984743,0.0007476729755629326
0.8033333333333333,-1.1574739508761933,-0.3898476147944445,96.45396882631702,0.015006208387499942,-0.08639028857568276,-0.002106301786929696
0.8066666666666668,-1.17965861375733,-0.398404930937863,96.57893873791046,0.015360867539961163,-0.08778230318789794,-0.00047959671865859606
0.81,-1.1883191810565008,-0.40238103340350045,96.6935634293729,0.015088052827454804,-0.08659526325344295,-0.0021177683780714226
0.8133333333333334,-1.1964697294348048,-0.4061846935369668,96.81476461410554,0.01431561496654405,-0.0811777827226636,0.0002339440502319212
0.8166666666666668,-1.2187205294287333,-0.40612335580961495,96.92976022954645,0.012110638201101018,-0.0817667703188157,0.0005117912367960966
0.8200000000000001,-1.222492927846857,-0.4098194687599797,97.03169715636643,0.012412130695972053,-0.07643299487762235,0.0015975321633012055
0.8233333333333334,-1.2406308932758536,-0.4291405519917229,97.13791417212192,0.008829442507721167,-0.0762141409032023,0.0005614307974723366
0.8266666666666668,-1.2589453605924779,-0.4231040779019038,97.23301591846267,0.014273216924538262,-0.07356663926764864,-0.0008083047897534609
0.8300000000000001,-1.2773495854151224,-0.4309551682155037,97.32381875181687,0.009675745308551954,-0.07123191083613178,8.02356139445495e-05
0.8333333333333334,-1.26977841185914,-0.4347876765775902,97.42603758732609,0.012601568486011128,-0.06737744651859358,0.00013557898782557204
0.8366666666666667,-1.2986676036700349,-0.4428739638470815,97.52309066131679,0.01182258197911438,-0.06731189499644863,-0.0025660451531086294
0.84,-1.300893614620807,-0.45431135904612324,97.61534418661235,0.011116390728022353,-0.06265293999200502,0.0017540556325417159
0.8433333333333334,-1.3199680789151162,-0.44682096104625263,97.71189935965411,0.009267963756309108,-0.06155139622660425,-0.0014811142528024432
0.8466666666666667,-1.3300962028185452,-0.4600816382344338,97.77890282799325,0.009847942600658674,-0.05913371076340838,-0.0011108735821614493
0.85,-1.330450015618782,-0.45976857498698065,97.87441258347455,0.009935465776510164,-0.0539549329500695,0.002772239160935222
0.8533333333333334,-1.34655611989749,-0.4620335984932491,97.94952035582976,0.008827430929087518,-0.0524882254365544,-0.0005172873308348643
0.8566666666666667,-1.353554564068679,-0.4589928940758499,98.02539073702302,0.007432345337808209,-0.05150540159959257,0.0016383372916183314
0.86,-1.3620366691889927,-0.4562483714531053,98.11392782169762,0.006533479242782365,-0.04812983106427206,-0.0006525456238365038
0.8633333333333334,-1.3815258695475328,-0.47349365876551636,98.18986863830638,0.009242329183928654,-0.04802950106665745,-0.001164850563271149
0.8666666666666667,-1.382978798904058,-0.46734157894681755,98.26601114538465,0.007008301868119248,-0.045205464766844256,-0.0006731875963910703
0.87,-1.384976173394385,-0.47606825921044726,98.33183538476874,0.007882883511462938,-0.03797833290490722,0.0002523010399662165
0.8733333333333334,-1.3942162831439449,-0.4825546150757462,98.41380179687391,0.001970305438771105,-0.03486982201244285,0.001533094138243088
0.8766666666666667,-1.4054780182558535,-0.48903431261757335,98.47888761429527,0.004120190749722819,-0.03296495825899581,-0.001275276567899734
0.88,-1.40088199313045,-0.470610650318071,98.55111277750692,0.00167804881683276,-0.033075568996385536,0.00043339618956163343
0.8833333333333334,-1.4136580287473668,-0.4833733590679828,98.61941460610527,0.0011994057019329078,-0.02754894451996216,-0.0030780990505175094
0.8866666666666667,-1.4180530416950652,-0.47632009689521854,98.70293847718992,0.001418188961080384,-0.02373034857983978,0.0002035300470763381
0.89,-1.4247753904934455,-0.47324015033375383,98.77453154883652,0.0019365269608017535,-0.021419788196939314,-0.001671867321073528
0.8933333333333334,-1.4305221030032467,-0.4818608064726338,98.8534306470309,0.006078316658453373,-0.023666025544026595,-3.3755207299944725e-05
0.8966666666666667,-1.4298405213916663,-0.4938513493231841,98.9169748541716,0.0007697965628378613,-0.01837636224607524,9.334257815562448e-05
0.9,-1.4329908603842845,-0.47105261847732066,98.98612492311331,-0.0014637372758238435,-0.015524355986301355,-0.0008980280880913813
0.9033333333333334,-1.442127328028848,-0.4833621300091991,99.06924924424315,0.00021251931139924703,-0.012101221543828141,-0.000483409512451912
0.9066666666666667,-1.4356557318659873,-0.4828815800313016,99.14345733001245,-0.00016462531808270227,-0.006538748313617225,-0.0005602188604762673
0.91,-1.441679980922116,-0.4844143762963687,99.22443117310141,-0.0004351262489049254,-0.007429511902086958,0.00023035579517116173
0.9133333333333334,-1.434551459497444,-0.48231839052805575,99.30644883759138,-0.0016267830699102888,-0.004966280971338593,0.0025925216950631884
0.9166666666666667,-1.432427152677414,-0.4827023247620089,99.36881552122989,-0.0014246166811374915,-0.0035805366572697283,-3.426389418371259e-05
0.92,-1.4409806696165217,-0.4772485565841308,99.44200404426705,-0.007510612098317384,0.003329320008395093,-0.0010880296147843008
0.9233333333333333,-1.4279985161531517,-0.4833257115960679,99.52355746846283,-0.00491961981754014,0.0037100601483662284,-0.0004486499005761329
0.9266666666666667,-1.429310054926848,-0.47538722294737856,99.59206348226465,-0.003180101906846193,0.008567240528091135,0.00036191797182759183
0.93,-1.4218409739523516,-0.4773415817529787,99.67208036123664,-0.0016549607311414556,0.013894307675899747,-0.0023252990102265846
0.9333333333333333,-1.4278678799914193,-0.4612647371351073,99.73220329894838,-0.004278687876449538,0.014430099359454022,0.00039251882017738956
0.9366666666666668,-1.413240261309357,-0.4635220471061843,99.81228541050787,-0.00503286453513475,0.016880271304939833,-0.0004999506502097837
0.9400000000000001,-1.414947150284088,-0.4631156103107645,99.87742987887022,-0.004202110661382316,0.016652313142531544,0.002138044283175854
0.9433333333333334,-1.393269967462343,-0.45763649498023423,99.95694974087942,-0.00708798905547958,0.017279384127565696,-0.0038021314642464237
0.9466666666666668,-1.3965501285698976,-0.4449707899712175,100.01380516647401,-0.005173033888366274,0.01942849607975075,-0.0014040986706614852
0.9500000000000001,-1.3862726227400994,-0.4498197693290065,100.07016206149989,-0.008371202810722206,0.026120297738314355,0.0014447648070076706
0.9533333333333334,-1.3856112876105426,-0.4405366223242798,100.13881874899789,-0.005968619456619023,0.02939121439469061,0.0041590480028893114
0.9566666666666668,-1.3781927767852626,-0.4285384900099426,100.18889864291057,-0.010910700121643992,0.028062855330412285,-0.0011895753468098894
0.96,-1.352442479067911,-0.4219636394792384,100.24977019130893,-0.006985496515228405,0.029855084056216567,0.002298582386013398
0.9633333333333334,-1.3550547985986041,-0.41964447831920454,100.30399696139382,-0.012930590289205096,0.03625453935698668,0.0005911504696336642
0.9666666666666667,-1.3458471375078747,-0.4048888640770427,100.3491268593767,-0.010134799036570408,0.034656133021698336,0.0013900488437445584
0.97,-1.31722443548057,-0.41860690591550576,100.3947194107736,-0.006859758524945542,0.04120457333687017,-0.0013080821056457434
0.9733333333333334,-1.3197465794545935,-0.40028450796159415,100.44241013199307,-0.01054739019253766,0.04130114464485068,-0.0018708787856031757
0.9766666666666667,-1.3059666634160938,-0.4060275799525743,100.49040801441326,-0.011517515234105862,0.04168980040541786,-0.0011352314847437872
0.98,-1.2910239014020042,-0.39353968002254314,100.53389696390073,-0.011821589388406037,0.04468989330027095,-0.0001757098399884268
0.9833333333333334,-1.2822791195544672,-0.37552503939297854,100.56365720373005,-0.011484507370573101,0.04859309105244533,-0.0019180340674004868
0.9866666666666667,-1.2688954582856085,-0.3766588198966045,100.5890395637964,-0.010385392772275771,0.050324028364434566,0.0020499497730640747
0.99,-1.250306576881595,-0.3595829338653189,100.61000427379533,-0.01193448897637818,0.052160526755929554,0.0018759698296648768
0.9933333333333334,-1.2304100120002093,-0.35113498439958524,100.6439078278224,-0.013118347462523675,0.05384193058777351,0.00015793098626013378
0.9966666666666667,-1.217016783587972,-0.3393924672740095,100.66555822508593,-0.012747961056344811,0.05210144312504529,0.0019034824247793816
1.0,-1.218450028139337,-0.3247649857470407,100.69120883052821,-0.0129908751645038,0.05878317196510455,-0.0010635392039753753
1.0033333333333334,-1.1837498780306246,-0.32386995554734443,100.71415961595835,-0.01553832394993828,0.057834639320433916,5.037047071588269e-05
1.0066666666666668,-1.1647885644924467,-0.320425485698963,100.73340647196834,-0.01400173217658382,0.058108208920378844,0.00041013297141712714
1.01,-1.1489698729967228,-0.29360010039125106,100.74597856773104,-0.014038383121362494,0.05960915479743684,0.0033691687551779146
1.0133333333333334,-1.1249414440858454,-0.3006971305394667,100.75654245195705,-0.012739759703848335,0.06318796416165523,0.002915490646739857
1.0166666666666668,-1.1066627588041273,-0.28192898459451976,100.7642262616037,-0.013349114631096606,0.06136032070596669,0.00039685800387188696
1.02,-1.0885455423454835,-0.2691874308688434,100.79117259650947,-0.013298692058772228,0.06353101125195508,-0.0009488478159005584
1.0233333333333334,-1.0781243788332393,-0.2633797579504092,100.8022337324521,-0.017426370969230897,0.06288122555082062,0.0012229071052627326
1.0266666666666668,-1.0594036796191038,-0.2598372433464733,100.8186293158533,-0.016703183036174303,0.06665293808800979,-0.0017485410010560176
1.03,-1.035181162387448,-0.2509454278507766,100.83536750030744,-0.015464043746196688,0.06538902159479312,-0.002101815156547297
1.0333333333333334,-1.0183200676884263,-0.2282536653383047,100.85308106533341,-0.01540129236675954,0.06573012098282022,0.00017919599843637242
1.0366666666666666,-0.9902531423598407,-0.2241926334405329,100.86904296528598,-0.01419193255106558,0.06480970898609116,0.0012366732377178823
1.04,-0.9741656170971614,-0.2156635514774254,100.88212618143292,-0.012865353031769663,0.07085597419160536,-0.0004239199340098211
1.0433333333333334,-0.9518347903816207,-0.20159563969141805,100.89504292033044,-0.014728891117870076,0.06736420142165814,-0.0016353249277964196
1.0466666666666666,-0.932557233003422,-0.1937264685051634,100.92009552880577,-0.016066249736195092,0.06905173992795743,0.0016701549915254866
1.05,-0.9090012077217418,-0.18774017484654187,100.94505056244151,-0.018390788937102456,0.07278099529253537,0.0014697621855840233
1.0533333333333335,-0.8832741296267046,-0.16213709066955675,100.96649122115775,-0.01643655416745373,0.06895854439512991,0.002150122788475897
1.0566666666666666,-0.8605859001466745,-0.1449041940904103,100.986410795955,-0.017217680790682213,0.06931614293814924,-0.0012868029712060538
1.06,-0.832675167112607,-0.1402270572275374,101.00612414531751,-0.017586361707619742,0.06869310611597283,6.79542871991902e-05
1.0633333333333335,-0.8151440002066637,-0.1336616276506337,101.0434483852535,-0.018102428527366946,0.06666598689543728,0.0011214922136247453
1.0666666666666667,-0.7955861193593488,-0.11998110742023044,101.09211629136347,-0.016043748229762244,0.06987351290162382,-0.001264737783932519
1.07,-0.7689213974166424,-0.102881778083556,101.1227736390547,-0.014915659539291689,0.06787827042101306,-0.0010710399964195985
1.0733333333333335,-0.744077386437819,-0.0961125842651285,101.15161802130743,-0.01644780929797622,0.06800958381293576,-0.002379337905357602
1.0766666666666667,-0.7169453646259892,-0.07643046158797877,101.19304778449744,-0.015719482800897782,0.06928623654107781,0.001960048877895916
1.08,-0.698172072170879,-0.07297119142894273,101.22499948945426,-0.01663277199460908,0.06573161443066253,4.3003178612747295e-05
1.0833333333333335,-0.678568099075211,-0.06515553105390716,101.26751808585732,-0.014348484475884238,0.06786922418002415,0.0006554478691613072
1.0866666666666667,-0.6503342094449146,-0.04328481165362737,101.30832642356192,-0.015587614373527275,0.06472962311951563,-0.0011844669804435455
1.09,-0.6354241907070245,-0.029706506159978226,101.34448030651896,-0.01749516774336459,0.06483302221033285,-0.0009452907640093043
1.0933333333333335,-0.6063809784397574,-0.02301699306755413,101.38068291106902,-0.014523511090459816,0.06320654338514047,-0.0007031791801358408
1.0966666666666667,-0.584977058320747,-0.012848173939231006,101.42883741720811,-0.01577926352679347,0.06133502281504757,-0.0014761297433214552
1.1,-0.5624843852910566,0.004829352354755189,101.46219064279975,-0.014125927595101482,0.0653609122432888,0.0009315574716671313
1.1033333333333335,-0.5482157967708946,0.009462847025570554,101.49797946222483,-0.013282133529870252,0.06027183656397719,0.0017048544521066676
1.1066666666666667,-0.516887925287354,0.013337173585133331,101.54110929291207,-0.014354926218450114,0.057159978250920486,-0.0005365568035050903
1.11,-0.5017419330178774,0.033864970552884885,101.57461378353258,-0.016075235035286097,0.058448118872411144,8.397677567503139e-05
1.1133333333333335,-0.48534038598738033,0.03377261111106743,101.60962071777912,-0.011003894038147659,0.056857514013530154,0.0006455660164148484
1.1166666666666667,-0.4621949364927545,0.04055448083053238,101.63762242162029,-0.013125271677500308,0.053854236722732644,-0.0019278145548565885
1.12,-0.45246043038664,0.04824182055435803,101.67622059906381,-0.010390258153011348,0.05249462100425395,7.647605242768507e-05
1.1233333333333333,-0.4238514284860507,0.06791791903935551,101.70732087183032,-0.00923373091471056,0.050882330297971234,0.0013828172126558237
1.1266666666666667,-0.40074336097618146,0.07179884262103305,101.72989234186862,-0.012519368374061826,0.05024097923354904,-0.001384631739411571
1.1300000000000001,-0.3815892221296487,0.08652107387440018,101.77137034453308,-0.009658696625497391,0.04588606860814932,-0.0006635278854014388
1.1333333333333333,-0.37064388150375405,0.08375674029111642,101.79928130060794,-0.011412014599920191,0.049046668310698746,0.0012497938636932455
1.1366666666666667,-0.36650459586725553,0.10164947953040404,101.81486592153117,-0.012873864070799691,0.04416114950060648,0.0007374407382910857
1.1400000000000001,-0.32593500974708695,0.1133899599677307,101.84701786322535,-0.00938557633123547,0.04370846692814205,-0.00109509533016121
1.1433333333333333,-0.31456179027705833,0.10564879028043095,101.86921603403898,-0.009765707207478332,0.038997275445290754,-0.0006338822072954399
1.1466666666666667,-0.3089098179541479,0.13246856232853363,101.88985861607874,-0.007033347633802179,0.038074363001384684,-0.0011858209461174203
1.1500000000000001,-0.2848555813784815,0.12897738258093633,101.92541390452207,-0.007191405741573679,0.036530772671806204,0.00025537549645189366
1.1533333333333333,-0.2681318601222619,0.13540439852450242,101.94245511020954,-0.007618874969858746,0.03216558204616096,-0.0023585855927634822
1.1566666666666667,-0.27104954137204224,0.1469565208214812,101.96795796610664,-0.007481844841818815,0.030241703452496924,-0.0023206748806657435
1.16,-0.24888258673265204,0.14726794829872344,101.99717378923523,-0.007724370564653063,0.0254361365701454,0.0004691067213294026
1.1633333333333333,-0.24612329669113361,0.15017020554293523,102.02460387533061,-0.0043101019588385955,0.02333313754056369,-0.0010140206160186547
1.1666666666666667,-0.22765325523598,0.1493469849919423,102.04758085988088,-0.0027794674704594486,0.02311097622086515,0.0006389480503223002
1.17,-0.21104719787857,0.15293856044936546,102.0760721244704,-0.006392101450706353,0.021638855262827997,-0.0013553407704483677
1.1733333333333333,-0.20814813347075936,0.15813504684848023,102.09965904948535,-0.008217759956892785,0.017417344587474536,-0.003805754266182017
1.1766666666666667,-0.20733821661395302,0.17377514978735137,102.12702455616835,-0.004006426302606458,0.014459851179036958,-0.0002894429136885414
1.18,-0.19187638803008403,0.17012147599493607,102.13851662571938,-0.005751810866563833,0.009476309955295036,-0.0011272236864815293
1.1833333333333333,-0.18879304048479192,0.17567121013313935,102.17762565802902,-0.002373526630546312,0.009980047423184472,-0.002391169700886189
1.1866666666666668,-0.1890028001380493,0.17379572700055018,102.20117704071286,0.0002794533822911174,0.00479986640502076,0.0013238840600646306
1.19,-0.18244801360027285,0.1731549492877633,102.23398308938958,-0.003614622677465021,0.004204283197001286,-0.0004402218828046878
1.1933333333333334,-0.17924109916679445,0.16455488113955444,102.2561212554867,-0.003157115408150374,0.002384696421277063,0.001316471701766333
1.1966666666666668,-0.18157568339765137,0.17477410442723762,102.27776211349864,-0.00035415398287511903,0.004066730859263114,-0.0030302004653626553
1.2,-0.1703051183340256,0.1776571678839648,102.31214417274828,0.0014507136122549544,-0.004547573877855357,-0.0021025038064308686
1.2033333333333334,-0.18113304606709124,0.1685796649685276,102.3448420842694,0.0019349743158797175,-0.003384245457182233,-0.0023851928164055408
1.2066666666666668,-0.1849017362193523,0.16622588734356972,102.38469068622193,-0.00149204702833228,-0.007445982528380846,-0.0004298281400393415
1.21,-0.17962766644028555,0.15992340625103005,102.39647522063298,-0.0008463186182508075,-0.015550344916359836,-0.001833422208927712
1.2133333333333334,-0.18336294503687697,0.17557006648282175,102.43034552155203,0.0002362207576480388,-0.01280102820549554,-0.0026079469475600125
1.2166666666666668,-0.17956863095591752,0.15765557124569032,102.46375421127496,0.003044870185943146,-0.01306305375622591,0.0004930713370470322
1.22,-0.18793575272253732,0.15661936290011552,102.49757862731627,0.0027585488375932244,-0.021326285208671365,-0.0005500581657402979
1.2233333333333334,-0.2034358371467455,0.16271491983919656,102.51346717622899,0.004845639244393752,-0.021911995459390446,0.00045045615550196456
1.2266666666666668,-0.1968555582140942,0.14591280136399515,102.54358637058357,0.002724895240107628,-0.024145219724134383,0.0014545926649287035
1.23,-0.21216547644013015,0.1449060694079589,102.56964146079903,0.0013427796402815037,-0.026707260862155215,-0.0006327378984269555
1.2333333333333334,-0.22134585298335005,0.1343708524752008,102.59835035074708,0.003381566836944334,-0.028168380186599822,0.000668742689520487
1.2366666666666668,-0.22551128368373713,0.1353787601092413,102.62235379488892,0.004535579345224679,-0.029193543700545582,-0.001098900664216141
1.24,-0.23421550274920658,0.12616485291793153,102.64908392632523,0.006751304600275423,-0.02907749492671665,0.0010408010256151771
1.2433333333333334,-0.2547090705869479,0.12420985451469937,102.66635077805293,0.004487784034678263,-0.03371443650675123,0.0005788574632074972
1.2466666666666668,-0.27018365228237706,0.11977994660920466,102.68158031101504,0.004978646173000454,-0.03511415505019504,-0.0025249079712591016
1.25,-0.27732199880798075,0.11008773616659719,102.69423605981137,0.004846021300195531,-0.03807192320845834,-0.0013012155368571205
1.2533333333333334,-0.2865295048769664,0.09587496257057757,102.7239311509433,0.006367062200150294,-0.040677912250987436,-0.0027684046928127056
1.2566666666666668,-0.3044093173364203,0.09863882254959372,102.74231505211381,0.009592437539773391,-0.041200886918392986,7.223043767749633e-05
1.26,-0.31637021397445336,0.0800461076227425,102.76428090697651,0.0070817596436056505,-0.04523769567978342,0.0012442605971189143
1.2633333333333334,-0.3308453525905769,0.07857335807450097,102.78231589665674,0.00815765512873171,-0.04387867151526332,-0.0007929002492154429
1.2666666666666668,-0.3466671427306128,0.06347088392958226,102.80545273393837,0.00888808758936958,-0.04477673026308773,0.0002052998456120901
1.27,-0.37450858851138513,0.050910303133428675,102.80740598495959,0.008728544301904236,-0.05074276427372209,-7.80517965298661e-05
1.2733333333333334,-0.3910400723139212,0.030729686517222556,102.83236693624221,0.008691316631717735,-0.049617602401433786,0.0001339781799215395
1.2766666666666668,-0.4065504100140639,0.026946511901078555,102.8441596888447,0.008279545943995877,-0.0502035734877068,0.0006998748828329011
1.28,-0.4390862887116196,0.010066461050086678,102.86405717233117,0.00940717546848183,-0.05393882898735693,-0.00269305599979677
1.2833333333333334,-0.44671030795098743,0.00683723213031433,102.87844401232088,0.0103634116568618,-0.050691806257250185,0.0013963313095734532
1.2866666666666668,-0.46958128848504255,-0.006599355018187812,102.91121688567559,0.008700454064351274,-0.05332660636032424,0.001194820431779377
1.29,-0.49584207877239994,-0.007613331820542687,102.90813500394702,0.009724405754826413,-0.05744421348877808,0.0015958111183791278
1.2933333333333334,-0.5065455832948793,-0.02503603252155786,102.93078754346399,0.011404594060161134,-0.05295893822274465,6.11741996960913e-05
1.2966666666666669,-0.5373415774693612,-0.043464696642030905,102.96001659945539,0.011346516506627755,-0.056462275006164034,-0.0011960874880484584
1.3,-0.5579400660908631,-0.05390780015388172,102.97031963986063,0.008793344622719398,-0.05750510123526653,-0.002063866398610391
1.3033333333333335,-0.5775992891034748,-0.06445165006464272,102.98758282018177,0.00970789766162917,-0.05532803906730363,0.0012404987475515285
1.3066666666666666,-0.595476289687233,-0.07754218235411214,103.01146498891848,0.01210533660251619,-0.05753697156450631,-0.0015535850972368435
1.31,-0.6234383905834779,-0.08660163388442393,103.042185429713,0.009685056254625018,-0.05742076911899811,0.001150796867527159
1.3133333333333335,-0.6494636011049459,-0.09958963919401531,103.0576763339727,0.010938726684120173,-0.059740691835225755,-0.00016907991035863685
1.3166666666666667,-0.6779339967770708,-0.11622799884938538,103.10193809289886,0.008829299436643187,-0.0584941665980387,0.00020584342747855637
1.32,-0.6997840055582648,-0.12188005934745254,103.12116637340145,0.00973008495876769,-0.05694984284669205,-0.003105183306312393
1.3233333333333335,-0.7150242835127598,-0.13361154509749737,103.1451109243473,0.009298509004037073,-0.05898775417409933,0.0011056587415449637
1.3266666666666667,-0.7533501690102679,-0.15226559270843054,103.17744536566681,0.009254468550114614,-0.05596062035703022,0.0023457705488218426
1.33,-0.7705901421855234,-0.161848535808646,103.20745488098528,0.012143621042549207,-0.056792716312254785,-0.0010417440233969316
1.3333333333333335,-0.793430126261652,-0.18329512026350536,103.2448041574126,0.013028612075048815,-0.05773346981003359,0.0011035774640584342
1.3366666666666667,-0.8171296632802577,-0.18604051784317557,103.28212558933744,0.009847870061772096,-0.0560382999026015,-0.0012807031142738614
1.34,-0.8398217838752697,-0.2015113048627834,103.33057958644733,0.006811915198166979,-0.06045906531345986,-0.001963595182517528
1.3433333333333335,-0.8608726848333613,-0.1979509389867584,103.3570875185077,0.009871030492472888,-0.05783580593388611,0.00010632960837637947
1.3466666666666667,-0.8866953408798666,-0.21511570506539696,103.38179822225835,0.009821939631187352,-0.054856877635111045,0.0004875168830275179
1.35,-0.9136987772964842,-0.2351486153723534,103.43910189583505,0.008915155964502632,-0.05503916595193399,-0.00018210752061428837
1.3533333333333335,-0.9318479002932186,-0.2451835810167821,103.47021947246185,0.007017341195441288,-0.05543968513970335,0.001051257020704653
1.3566666666666667,-0.9612858963422289,-0.2521773638264132,103.50320207770679,0.011185002633855473,-0.05080791841576769,0.0010821937562641405
1.36,-0.976420257568021,-0.2662883024058352,103.55690474352085,0.008645939500194455,-0.05452739787431525,-0.00021933917718444104
1.3633333333333335,-0.990718513984587,-0.27629052497730744,103.59801979884169,0.009154639945783166,-0.05042648484460552,-0.00023662217778519886
1.3666666666666667,-1.0200745434907088,-0.277524246717584,103.64148058712406,0.006347335772000523,-0.04749087183120935,-0.0003819126508288995
1.37,-1.0404310783502535,-0.2943462196124754,103.69419042980532,0.0031465248128422123,-0.04831585709046482,-0.002088999563234963
1.3733333333333335,-1.053303394283392,-0.2996970027393685,103.74627221036054,0.006426975667609817,-0.04788875684050258,-0.0006971005186417486
1.3766666666666667,-1.0771565602966002,-0.31465219366479286,103.786779019113,0.009930509931616519,-0.04517618962837864,-0.0008432396357962171
1.3800000000000001,-1.0906621433481603,-0.32141946055456067,103.83554809499566,0.005115375929062449,-0.04353728491979503,0.00030111956128513136
1.3833333333333335,-1.1008516954779446,-0.32304162250994445,103.88595554416241,0.0036266426202150696,-0.0421473828732163,-0.0012136091190681924
1.3866666666666667,-1.1177652679356704,-0.3349857715991831,103.94970565246967,0.004258114821482166,-0.03938135309991064,0.0017139314307742194
1.3900000000000001,-1.1289237694210996,-0.3504123678307391,104.01599456382425,0.005453574868665557,-0.036456285631493356,-0.0011660007188891927
1.3933333333333333,-1.1541085020323791,-0.3558695692705365,104.06959830413115,0.0028613684381273686,-0.03546602167887296,-0.00029813017449988396
1.3966666666666667,-1.1562379839203178,-0.3576840062753055,104.11943854549392,0.0031644761649086625,-0.03434972517393534,0.001103803764578356
1.4000000000000001,-1.170239899093667,-0.3668875129516319,104.18281791485356,0.005228753357211966,-0.029703352661725226,0.0012973646144851933
1.4033333333333333,-1.1862189848631128,-0.3675662392312975,104.24896341991986,0.004745938504995444,-0.032681349734600296,-0.0007167563240740728
1.4066666666666667,-1.193811821887328,-0.36162465366230334,104.32317120383927,0.0010003938873120156,-0.029125332445166602,0.0005440662338182811
1.41,-1.2038023348351303,-0.3767844702509107,104.38629338270404,-0.0002217459933795459,-0.024830207048620764,-0.0020031373024373316
1.4133333333333333,-1.207453437048091,-0.37335250429595085,104.4697343816284,0.004559680467455441,-0.023089322928704758,0.0032350166201332345
1.4166666666666667,-1.226301301970762,-0.3764536720366609,104.54306409081684,0.0007807237535289277,-0.021860767523480432,0.0010276978020961338
1.42,-1.2202110786088116,-0.3755174655708614,104.60771929591112,0.006790825284631352,-0.02245405324566792,0.0015021080990192104
1.4233333333333333,-1.231384377226338,-0.3765881815841951,104.67683970735894,0.004214886710624638,-0.014370812457809475,0.0011645046108860354
1.4266666666666667,-1.2346374223743213,-0.371079203517725,104.72271418825537,-0.0008768850930038689,-0.015590872323119153,-0.00024307760010710256
1.43,-1.2328449043940295,-0.3685435248042879,104.77797619153559,0.002770585950114717,-0.011980348992056461,-0.0017218123342854052
1.4333333333333333,-1.22728009227343,-0.37074333213015936,104.83181300680951,0.0007126780365855432,-0.010315585511433065,0.0020989831422435845
1.4366666666666668,-1.2184180487620715,-0.3772037722657764,104.87648980013091,-0.002471156036858777,-0.009623332413881316,0.0013955392273836316
1.44,-1.2261958687671646,-0.37305980082616824,104.93808195639234,0.0007747349958476713,-0.004642529293195327,0.0008547451269860681
1.4433333333333334,-1.2384283036523585,-0.3670108165077249,104.96949293831612,-0.0017513283881838474,-0.0060718592083625,-0.0016373945683794717
1.4466666666666668,-1.2221594964248839,-0.3598895751270306,104.99149066166763,-0.0002483849368916998,-0.005939925845760256,0.0008879025146118797
1.45,-1.2169618797495927,-0.3572405339219841,105.01140947914308,-0.0017240045626369894,-0.004107972665144129,-0.001193270279487394
1.4533333333333334,-1.2093353882688438,-0.3520850326449543,105.03673019576853,0.0005301410993959576,-0.0034294206547941363,-0.0015938194823344894
1.4566666666666668,-1.2084296968914232,-0.348748878367034,105.05717438350497,0.0003966894348497621,0.0016979482832935094,0.0008513287282888174
1.46,-1.1955432112268463,-0.3445210290327235,105.08468564399246,-0.0020379838042236652,0.005144382747884529,0.001572380249184558
1.4633333333333334,-1.1916537344632714,-0.33385775961834147,105.0810348789497,-0.0039032306633617776,0.0031573941047602734,-0.0034797060563134144
1.4666666666666668,-1.1779302277246781,-0.3318666533336344,105.06530789831655,-0.005109677522716161,0.0046648810647463845,0.0021989483552236175
1.47,-1.163803843930702,-0.31877805419374994,105.05262004868305,-0.005143776534259465,0.008950734896307374,-0.000544335624209279
1.4733333333333334,-1.1516250733198985,-0.32290854369650124,105.04870925644654,-0.0028401378219755475,0.007131657924921047,0.0014410593669932185
1.4766666666666668,-1.1435416905387925,-0.305192352548615,105.02929551569002,-0.005772451430268194,0.012201158528913436,-0.00017319010910746066
1.48,-1.1311885747941366,-0.2974965906317131,105.02420919100014,-0.006399709985498272,0.01306051340677404,-0.002587484650433995
1.4833333333333334,-1.1077926364304955,-0.2923584606642118,104.9824990890191,-0.006174812820383703,0.013095386886237936,-0.001282499194200778
1.4866666666666668,-1.1015042887192084,-0.283969661746494,104.95912561793659,-0.0034001204184250346,0.01553331090897441,0.0002837697727087199
1.49,-1.0884433370379691,-0.2746118930472072,104.9258595180969,-0.006127343802625548,0.01647355242019111,0.0020334657732778206
1.4933333333333334,-1.064487532429967,-0.26234956766241985,104.89800414284625,-0.009240074923255733,0.016986768459407914,-0.000955964848674219
1.4966666666666668,-1.0468214662058315,-0.24818121396767046,104.86496032726872,-0.008286349069654064,0.018266874518811937,-0.002609576628606979
1.5,-1.03616201759664,-0.23825489539180547,104.8239991884677,-0.005437355483349726,0.017434629002270823,-0.0015347967533078644
1.5033333333333334,-1.0202565911770785,-0.22788373247065652,104.79887312123873,-0.006068244341618836,0.020598326350486622,0.0013251499847681107
1.5066666666666668,-0.9903848205261364,-0.21251456167734958,104.77767080806743,-0.0070932450173989995,0.02154011471425792,-0.002027449871959771
1.51,-0.9879551253098778,-0.21503107501670818,104.75142705569348,-0.006415569854162437,0.02136052397651587,0.001115217604647409
1.5133333333333334,-0.9609349547787265,-0.19058073586522734,104.73998869049169,-0.009657893454791618,0.020545425175799104,0.0026397589138181525
1.5166666666666668,-0.935868379873257,-0.19905250618661277,104.71398787708021,-0.007360676219458871,0.023553850960855154,0.0013149656272676883
1.52,-0.9007839279397787,-0.16628635666530844,104.68979875795611,-0.006162428187960623,0.020427832499350474,0.0024801998678465054
1.5233333333333334,-0.8967255863078435,-0.15904486871993098,104.68693648060618,-0.007058524400705826,0.023654703443026396,0.0015593979260170867
1.5266666666666668,-0.8801385686149256,-0.14504840576294475,104.67703272772627,-0.007059221008978924,0.022274567185531485,0.0006471909566652649
1.53,-0.8587977595946735,-0.1389791410017589,104.68695038738666,-0.007977848623416184,0.020109687212114605,0.0014511804975717844
1.5333333333333334,-0.8312567610921497,-0.1331738505140847,104.66937196935645,-0.007274011974372586,0.021586337984877066,0.0013054981681709392
1.5366666666666668,-0.8186379673281416,-0.11264479221060558,104.67038898749192,-0.008262739919586343,0.02322130432712076,0.002651657852227216
1.54,-0.7922457373252834,-0.09845992495901656,104.65823429022784,-0.0048904599721979435,0.022811481526503818,0.0010423392781938568
1.5433333333333334,-0.7775928641126266,-0.0964358753945165,104.66769859464225,-0.0055622238570955254,0.02251858614012711,-0.0003590674353546155
1.5466666666666669,-0.7530470675069724,-0.07561256003814107,104.66107559188467,-0.004545446425349743,0.02318508251218191,0.0028731388708039406
1.55,-0.7452945241389846,-0.07246165473529874,104.67308902819867,-0.0067682728820926226,0.019470357764692876,-0.0007054555193481894
1.5533333333333335,-0.722091611626514,-0.05806512008167948,104.65529414389579,-0.007333685216323424,0.020742232704983786,0.001984647733500308
1.5566666666666669,-0.7062281653612507,-0.05005684533444324,104.65983267547129,-0.005033991294718087,0.02347507861036315,-0.0013665580433913425
1.56,-0.6801768185704524,-0.04393903906082325,104.67047834562797,-0.008246254488980708,0.01669493994647487,0.0027016696939553045
1.5633333333333335,-0.6656306967287469,-0.039657973226308,104.66052722478135,-0.005943508718397833,0.019672178927127,0.003071284634869634
1.5666666666666669,-0.6521142921970468,-0.02589354570702718,104.63843912275887,-0.004804436866978287,0.015479842460783811,-0.0007071061690647085
1.57,-0.6324111672011258,-0.02730425485051252,104.62363883396789,-0.0035040905220738317,0.014971497397889989,-0.0005583127625620709
1.5733333333333335,-0.6262602133573247,-0.005404524278277086,104.61150753712808,-0.006255576233566609,0.01445721343380779,0.00012159973499926437
1.5766666666666667,-0.6155678298314531,-0.002166806438592549,104.59464267048939,-0.004593262533806442,0.013798522791414528,-0.0018189228843349494
1.58,-0.5910802768393407,0.0022321890548937704,104.58091606787819,-0.0030861614260428083,0.010606890543293848,-0.001896979399812197
1.5833333333333335,-0.5765123298787393,0.006586699257747885,104.55323972854308,-0.00421970335623019,0.014965749440116652,0.0017691868085593857
1.5866666666666667,-0.5681496728087461,0.010802624606509567,104.52438382376627,-0.003875489499296532,0.010421495902596356,3.9365499571778734e-05
1.59,-0.5548221599255039,0.01732152555075733,104.49714898669704,-0.0021559505036675246,0.007215384593768012,0.001102131333581924
1.5933333333333335,-0.5611926143400563,0.02158578264914853,104.46419375975375,-0.005739477622198699,0.005649561032570452,-0.0006177744296759345
1.5966666666666667,-0.5447225164809611,0.027694339926006232,104.43902901180755,-0.00462809920510397,0.0029198824703144384,-0.0019454070466911125
1.6,-0.5289391221852725,0.04245384510128771,104.40056712611951,-0.005637569035261006,0.005401829464956077,0.0010407298223582267
1.6033333333333335,-0.5214961510644113,0.031167053142226273,104.35885318199108,-0.002140494783231228,0.004272980261913299,-0.00011336531751448309
1.6066666666666667,-0.5201376152265972,0.04583019403213489,104.2939370511175,-0.004165481916463392,0.0036898651832091406,0.0006015291154607702
1.61,-0.5231337220502749,0.03344410961087279,104.25387856973062,0.003613092883505457,-0.0011030482406925144,0.0026628763026142854
1.6133333333333335,-0.5093338625899584,0.04364918153567277,104.19318188442301,-0.0031601653014193204,0.0001980291970045062,-0.002278378801438181
1.6166666666666667,-0.5144959479399714,0.03864230380224159,104.13228963557033,-0.0019732575170065486,-0.005262508119199885,0.0015986688916257415
1.62,-0.512020548102039,0.032889192111239446,104.08755553459123,0.0012583837628021483,-0.004395186055251121,0.0014218335741278496
1.6233333333333335,-0.5069449270764042,0.03585671270030116,104.01435938234621,-0.00021069808126027005,-0.005034262596518343,-0.001427415338884335
1.6266666666666667,-0.5134209779770298,0.03474246059958535,103.95319837259184,0.00031958504504909303,-0.007656875121658989,0.0016506911091200341
1.6300000000000001,-0.5127520612918611,0.041509836781988926,103.88017075011985,0.00029338747362349,-0.009645154778732914,0.001695580949744614
1.6333333333333335,-0.5168927293572234,0.034969566551290784,103.81488036827969,0.002502874361505354,-0.011562764039891222,0.0004910958591965699
1.6366666666666667,-0.5315848430895164,0.028809587140184664,103.74695550295876,0.0038417580806873576,-0.010338839202521233,-0.0030311016724425036
1.6400000000000001,-0.5291058546106129,0.025457949286497278,103.68617722731973,0.0033061481294060064,-0.011968813750177932,0.000245690894906077
1.6433333333333335,-0.5427810909817598,0.01441435153188654,103.62860068742656,-0.0006373971669088052,-0.016583134363524567,0.0012134488391692044
1.6466666666666667,-0.5454743337434985,0.011718007787686103,103.55755059917311,0.002242297414397405,-0.017929762350922012,0.0005447187955067963
1.6500000000000001,-0.5489845908641569,0.0070442412099158335,103.49884050735038,0.002065089648580613,-0.018099120945335417,-0.002613317462018191
1.6533333333333335,-0.5724988534836963,-0.0013872445761412356,103.42207263114926,0.0030812257449043933,-0.018822447860587472,0.00331433010667761
1.6566666666666667,-0.568251036355973,0.0023547788693112394,103.36301706309979,0.003814491802044109,-0.02144547706675151,0.00010571607428208188
1.6600000000000001,-0.5882748647967708,-0.010136311926277869,103.29856574472521,-0.00026795754964411026,-0.021694783377585507,-0.0030801286001970497
1.6633333333333333,-0.5960908352586165,-0.024109152755404428,103.23847414826638,0.003804767814341372,-0.023318742935908188,0.003388552778127515
1.6666666666666667,-0.6025831403008892,-0.03020269708548807,103.18883604433884,0.006508697201733301,-0.02227901590778887,-0.0017537433868070821
1.67,-0.620975175099842,-0.03558999919488349,103.1230625107831,0.002280810838044806,-0.022336605436039825,-0.00037439404459951934
1.6733333333333333,-0.6293483997508226,-0.03657571988430319,103.06387901832124,0.00278007734296872,-0.023896379098848432,0.0007266580545603581
1.6766666666666667,-0.6563609577500394,-0.050735219746004485,103.00466350935385,0.005379204805524801,-0.024201214350397945,0.002153259016035527
1.68,-0.66693372253573,-0.050851558721035764,102.95267238143641,0.002110447535819782,-0.026534124818610925,0.0012862329944164032
1.6833333333333333,-0.690672617227237,-0.0723339731126044,102.89645053619049,0.00615206191118991,-0.025862025463067075,0.002368115772915331
1.6866666666666668,-0.6971533817049818,-0.07354056791127515,102.83788688123813,0.005411745377742059,-0.02581283340121264,-0.0032589680101827467
1.69,-0.7216324753436634,-0.08789674469024916,102.77671911304145,0.0037289671029077415,-0.024413892421795508,-0.0039290488895741445
1.6933333333333334,-0.7408179576453954,-0.08585168589679229,102.72890284346673,0.001417267196125825,-0.022492992429524766,4.872776105136802e-05
1.6966666666666668,-0.7477570200433727,-0.0998473024761726,102.67109186548426,0.005163935380307677,-0.02885067964277427,-0.0013199411790759813
1.7,-0.7686652538771739,-0.11071849679512484,102.61709707505929,0.0058742503408547725,-0.025648979557740325,-0.00023077588281317373
1.7033333333333334,-0.7889039247766237,-0.13287000501998458,102.56839211891216,0.007944027196176196,-0.02777245709143904,0.001986366319886041
1.7066666666666668,-0.8119386066425403,-0.1315474526207007,102.50689847662429,0.005074532556151874,-0.02713303752623971,0.0015859447164342942
1.71,-0.8176431986117814,-0.14640025325363293,102.44641904717578,0.002874015154423929,-0.032154343410738126,-0.0012056078969130467
1.7133333333333334,-0.8344188735038434,-0.15313715458384458,102.41223367104459,0.003439592321079119,-0.02784056815206701,-0.0013057397617528654
1.7166666666666668,-0.8479882682340415,-0.15817564326579406,102.34981204570222,0.002518753363634472,-0.02986444402440677,-0.00047513938848610035
1.72,-0.8641269085907157,-0.17240459951648757,102.29493206668245,0.004550769234256177,-0.02551437336824378,0.001535285460422234
1.7233333333333334,-0.8836849312889123,-0.17736918667222457,102.24003284599083,0.004611735858298766,-0.026454566981478397,0.002268185808110279
1.7266666666666668,-0.9073835267050667,-0.1801619208973776,102.20417037357562,0.005988352167352436,-0.02798775311977983,0.0011467307549448981
1.73,-0.916193239080923,-0.20665970350844348,102.14054652553672,0.0006417165749265465,-0.027842467303631782,0.0009097845848534742
1.7333333333333334,-0.9270297692342642,-0.19434128506992648,102.08642185318757,0.0034672240555171847,-0.028602731717942413,-0.002008288231619017
1.7366666666666668,-0.9485140940526468,-0.21650479794163044,102.03097406403828,0.0005611526254240885,-0.0243959950758333,0.0007463879515040235
1.74,-0.9566642329279779,-0.21521332009021396,101.97350869900842,0.0013046887516310517,-0.024728994544694686,0.0003144764584542742
1.7433333333333334,-0.9675315248210871,-0.22639474384696126,101.92361652742417,0.0029403029064849055,-0.02222870749805553,-0.001485230427537665
1.7466666666666668,-0.9841279286596842,-0.22730269218906562,101.89067194118684,0.0034542368488663655,-0.02144278902467416,-0.001953517313884135
1.75,-0.9926655280837671,-0.23291446962153614,101.8424809439102,0.005780885892443426,-0.027530823566628868,0.0016313229830819725
1.7533333333333334,-1.004002713343831,-0.23950649393362172,101.79852831796063,0.0016295860522429445,-0.023322933744156726,0.0004969987198097486
1.7566666666666668,-1.0124189962824248,-0.24057545170757466,101.75051919867036,0.005505819856531275,-0.02112556131581643,0.001610763635718576
1.76,-1.0344800426645944,-0.24295846030965465,101.7050966683687,0.0016215973890622503,-0.016041816727781218,-0.0006978423772640151
1.7633333333333334,-1.0300076043932547,-0.2589665312097807,101.6539057520312,-0.00017997043062015976,-0.017343418463771795,-0.0005805075086420828
1.7666666666666668,-1.044105381626722,-0.2601745281626345,101.63184516059746,0.0003208181641272626,-0.017011290965507075,-0.0013174775309119765
1.77,-1.049137058822856,-0.24648842815935051,101.58689988139409,0.0026196370161848653,-0.018007394226618324,0.0017957565376134827
1.7733333333333334,-1.0414069354541065,-0.252317293639747,101.54778849353902,0.002383061787177396,-0.013049586052290965,-0.0037795849143551904
1.7766666666666668,-1.0478625577467298,-0.2553621894796289,101.5100541255942,-0.0003967813631163027,-0.015133998466957033,0.0002229751668043231
1.78,-1.0609350652181029,-0.25879526454039975,101.46158265768766,0.0019417379413446119,-0.01180587351405114,1.517962557857106e-05
1.7833333333333334,-1.0530624746118724,-0.25754718393671183,101.43235002990396,0.0012445739779009637,-0.013441405128956103,0.00222020328768979
1.7866666666666668,-1.0618942696853768,-0.25680436508407156,101.40198560388225,-0.0007930531416230828,-0.007366749190950704,-0.0006953400794354155
1.79,-1.0681597220965386,-0.2589182318966833,101.36452424294552,-0.00190946123461251,-0.010465345496633591,0.00029294899236431547
1.7933333333333334,-1.0627892072574696,-0.2504324954429097,101.34460034424569,0.0006074335880452969,-0.006516236308937703,0.0027454391933888424
1.7966666666666669,-1.0603208176950698,-0.25524362686805857,101.3069826292304,-0.0018520729219914352,-0.00598585679825708,-0.0013340499705966698
1.8,-1.0474246746766542,-0.24449214903214203,101.28096923156066,-0.0020240816054710583,-0.007247823938778085,-0.0014638562461176381
1.8033333333333335,-1.0598124542570442,-0.24261098034945236,101.24308659654609,-0.0015743889126768919,-0.004610812740709793,-0.0007208165737145126
1.8066666666666669,-1.0465122245076504,-0.2406265692134078,101.20428790173835,-0.0002198904759708292,-0.008652521804186488,0.00019625422970296683
1.81,-1.0412924039980336,-0.22971735524370201,101.158682674678,-0.0011027605898511446,-0.004203594172906827,0.0016096814062167048
1.8133333333333335,-1.035240903051208,-0.22756779951247696,101.12288836918849,-0.0026686775035426034,-0.006453630548523055,-0.001362174621702958
1.8166666666666669,-1.0211892380280105,-0.234955939389915,101.09853246902895,-0.005025630229155917,0.0031538924096600387,0.003046231690293452
1.82,-1.0192490283124678,-0.21962983350298393,101.05785793047524,-0.0011568389213076143,-0.002071497995407249,0.0009564641736170637
1.8233333333333335,-1.010082311276162,-0.2121727552817428,101.00380874336808,0.0006921377758628531,0.0009156132207408821,-0.0033109739364315296
1.8266666666666669,-1.0013471342448355,-0.20412182947114754,100.96229458945616,-0.0028414343546666904,0.0019659292374858747,-0.0010726255049339209
1.83,-0.9921970500952495,-0.20675462319824497,100.89174342562085,-0.0030427060602878564,0.0008365330261883273,-0.002022070886846312
1.8333333333333335,-0.9820986878425394,-0.20685291547502874,100.85237460755063,-0.0004822434566437539,0.0041436378989190845,-0.0002609697175198336
1.836666666666667,-0.9748499903443987,-0.18463863596978758,100.79221017043038,-0.004279825819145164,0.000845077184118093,-0.0003514054932360935
1.84,-0.9573353152686309,-0.18424426811412278,100.7409424710172,-0.0019472047267494273,0.004015189190836198,-0.0011462076770926985
1.8433333333333335,-0.9486623475118695,-0.18144111083279138,100.66764489377113,-0.0043124090374140524,0.005114600854596022,-0.0004742022532940854
1.8466666666666667,-0.9415473295329818,-0.16525899718227993,100.59949413742711,-0.00027812622246356066,0.0036854227062726183,0.0006366834238710727
1.85,-0.9340674248626576,-0.16091484981801255,100.51833013917846,0.0007203858978394187,0.0032792436219528606,0.005655874862700264
1.8533333333333335,-0.91253855402631,-0.1556404066266246,100.4388241715682,0.0008062932268115249,0.0022528790918487484,-0.0006557173694798819
1.8566666666666667,-0.9047557445728606,-0.16187764845667452,100.36676603926075,-0.002229690544173798,0.003458979516764874,-0.001950907623601654
1.86,-0.8950505107492018,-0.12787004337977914,100.2746692289256,-0.003581206677185718,0.004886747865575402,0.0031416070538463525
1.8633333333333335,-0.876821120547564,-0.13518543011989703,100.18523367947964,0.0002466233060704711,0.006021894276491645,-0.002773240019334327
1.8666666666666667,-0.86783284406397,-0.12198850254719626,100.09011308037032,-0.0017092865521002494,0.004700643137212039,-0.0006830589444310736
1.87,-0.8498672679419019,-0.12801126087772277,99.98657911963045,-0.005351901879146165,0.003660182455742292,-0.0018532757732118463
1.8733333333333335,-0.8415762051351611,-0.11074208373378268,99.89659013377069,-0.0009916833143374876,0.0037762769255137232,0.0008856194201586276
1.8766666666666667,-0.8270536041904559,-0.10418055974720035,99.79640137096598,-0.0036481646154179785,0.007091485699503558,-0.0007717329822388772
1.8800000000000001,-0.8180274946599666,-0.09756969988380329,99.69628635347992,-0.002150965246948393,0.0033549082229259444,4.806360368976882e-05
1.8833333333333335,-0.8093729275314111,-0.10139918843014448,99.59292971751726,-0.002161257424553209,0.002252830158490252,-0.0016321278237039724
1.8866666666666667,-0.8027816035205199,-0.09864597538895327,99.48116981856178,-0.006830339037771768,0.0012173627004271258,-0.0024959933051813986
1.8900000000000001,-0.796481224475472,-0.08678007334678672,99.3680709786412,-0.003198743721238932,0.004312081823094694,-0.004067823871156427
1.8933333333333335,-0.7857038232883318,-0.07257615424364208,99.26212340752146,-0.006399981266107025,0.002136836762119943,-0.00172954934289667
1.8966666666666667,-0.7694843246607627,-0.06458140790508972,99.15874913308748,-0.004861852945512493,-0.0014208308877402798,0.002373439576544507
1.9000000000000001,-0.762755739447154,-0.06496248395516953,99.05523026876799,-0.004572304847953173,0.0005757036848777234,-0.0005524700715593772
1.9033333333333335,-0.7526012090941286,-0.06462187179218279,98.91515501796015,0.0017528010657575832,0.0022985511852614553,0.001414527260184627
1.9066666666666667,-0.7390497374800366,-0.07111132245896262,98.81363032636982,-0.0013763145533376223,-0.0019032509740215552,-0.0007133463409344697
1.9100000000000001,-0.7406643240715396,-0.05783547493858815,98.69960607880657,-0.0016922533054409042,-0.0003440431379159955,0.0008750568323708195
1.9133333333333336,-0.743227789406838,-0.06276739749202803,98.58442957741974,-0.0017880507410491786,-0.004188491884651227,-0.0012923861965510465
1.9166666666666667,-0.7456561225706921,-0.05197333745586981,98.47141365316918,-0.00032225686829566533,-0.002989849101723491,-0.0017826881315924827
1.92,-0.7330851038495475,-0.05900562637799236,98.34417135968096,-0.002096392767616935,-0.00404904683965836,-0.001576170490117129
1.9233333333333336,-0.7296974098172623,-0.0456592485597634,98.24254505584472,-0.0014790000596983403,-0.005495039691363201,-0.0016024707200943725
1.9266666666666667,-0.7256779873048292,-0.05843091427599072,98.13357862679214,-0.0016686451229840252,-0.0029625699340288087,0.003779813635894074
1.93,-0.7263162048760863,-0.057354816540098774,98.02653838821843,-0.0009254466433718968,-0.008826902332457991,0.002670048234820586
1.9333333333333333,-0.7243441356506133,-0.053323570793511355,97.9195366557429,-0.0011218468148376636,-0.007836207011644478,0.0005828636013704737
1.9366666666666668,-0.7246819002878342,-0.06116532065510832,97.80939455262303,0.0007369886824344504,-0.008095288584266972,3.305770386283996e-05
1.94,-0.7205823433199927,-0.05986903405739476,97.69486216931337,-0.0011461426727269921,-0.008198933392084279,-0.0003381412577894722
1.9433333333333334,-0.7356239502745523,-0.055498874012900726,97.59687219848654,-4.57900507635188e-06,-0.0051777855622970066,-0.003150022156081723
1.9466666666666668,-0.7304073578089473,-0.06152640782809017,97.4893494244453,-0.002534742156374362,-0.01023913579177924,-0.002048673507093287
1.95,-0.7339009311162311,-0.06136109019164886,97.37509239058909,0.002502219366584057,-0.009811743494809629,-0.0024660151218726663
1.9533333333333334,-0.7442693833056485,-0.062108641500022606,97.26646291379757,0.004011380352801239,-0.008606671296498926,0.0002682266798079864
1.9566666666666668,-0.7509018518639827,-0.06450429157496375,97.16688223789741,0.000564678726147293,-0.013220941253201373,-0.0006686458256276831
1.96,-0.7542479702716792,-0.07525624146658498,97.0484263018392,-0.0007900048953277377,-0.010744491734518677,0.0007322230740315192
1.9633333333333334,-0.7586918194648492,-0.07456555129454986,96.94184131022482,0.0015065338001255845,-0.011774824322184197,0.0001950330690720018
1.9666666666666668,-0.76190916813871,-0.08886897204367747,96.82650695482361,-0.0017919207605738138,-0.011365553565736907,-0.00047013438505455
1.97,-0.7728837149044654,-0.08744720489612945,96.70879209450645,0.0012681799006104668,-0.013189251297560694,-0.0007317200805343336
1.9733333333333334,-0.7708208029245762,-0.0838962692521349,96.58097006523627,0.0012017792069628544,-0.01778594955243774,-0.003511309483526116
1.9766666666666668,-0.7919637252844157,-0.09876975181287605,96.46071415527496,0.0015797017563656845,-0.013263086788662174,-0.0005769212135406338
1.98,-0.8023450594305122,-0.09187574325103283,96.33878180768076,-0.0007537053756107473,-0.012680522255368637,-0.001335700552914219
1.9833333333333334,-0.806386065077139,-0.11123219222687392,96.21274101930369,-0.0037027267397082312,-0.01578794711753912,0.0016564881907173495
1.9866666666666668,-0.8266674983069452,-0.1130426356007479,96.10135753185811,0.0015629770945154906,-0.014523484309270869,-0.0013153290808713496
1.99,-0.8229160894981083,-0.11569148971517389,95.96303874215512,0.00032729623397183575,-0.013120228308640512,0.002170570367989563
1.9933333333333334,-0.8320403446811124,-0.11329752825201629,95.83909169809205,0.0006705397243054785,-0.012752960701349722,-0.0020926738061651995
1.9966666666666668,-0.8419722442490494,-0.13330568263358972,95.71210251008165,0.0023780069825015716,-0.016421027774374958,-1.0888487085428941e-05
2.0,-0.8587353516637506,-0.1394145155120777,95.58995136603497,0.0015039080596750114,-0.015897669419310315,0.001083689365895372
2.0033333333333334,-0.8700633125249152,-0.1364320637394018,95.45099623934452,0.0014810587118937282,-0.014907362655332846,0.0004715664841320531
2.006666666666667,-0.8712917679936348,-0.14417967156635722,95.3206353726098,0.0014858038225345727,-0.014851390145670043,0.0021308212796076215
2.0100000000000002,-0.8831614459469361,-0.14372986099804028,95.18260119418255,0.001548433035909249,-0.017642790574232188,0.004729149637468849
2.0133333333333336,-0.8901450198882976,-0.15405514914220106,95.04789512435482,0.0017635383833395596,-0.012639031766275642,-0.0009013645084217071
2.0166666666666666,-0.9015927032179554,-0.1508492333320933,94.91195359025701,-2.123065215815117e-05,-0.012805894273184633,0.0028873963475485693
2.02,-0.908430638672341,-0.16050816926923647,94.78862625538322,0.0031035481576271997,-0.015089813878399395,0.0015007271415138496
2.0233333333333334,-0.9224537853039375,-0.16327644626028573,94.62625622303966,0.0026405687350826326,-0.012249467874482715,-0.002745785981079579
2.026666666666667,-0.9246759997999934,-0.16456666489205402,94.4871901337744,0.0026077088587896087,-0.01534970432168566,8.86842813465034e-05
2.0300000000000002,-0.9331911402954448,-0.17397169891104894,94.34681527500776,0.0010615299536409631,-0.014487733650365705,-0.002329864101299092
2.0333333333333337,-0.9489965150456781,-0.18298032333477152,94.19711448080587,0.0037053547135230463,-0.012067100311528918,-0.00018948333469120935
2.0366666666666666,-0.9444339717551692,-0.17636951106962906,94.04980342491248,0.002461912852688907,-0.01222642501617666,0.00078274028001465
2.04,-0.9570802353503272,-0.18292169857811474,93.90580440601875,-0.0005802195116317638,-0.011509624377699377,-0.001365865856781295
2.0433333333333334,-0.9517167367653916,-0.18149138028231332,93.7366069153067,0.0024227318632304394,-0.013315895207804495,0.00023602394713680207
2.046666666666667,-0.9621477884953622,-0.19684913583249364,93.5678594584983,-0.002109873627963752,-0.010244129866432757,-0.002927720024631363
2.05,-0.9674852108645984,-0.1863420183268262,93.37878797999495,-0.0001133938577816242,-0.008582402551130758,-0.0017842673600516226
2.0533333333333337,-0.9782022312167769,-0.18730171878798688,93.2027403550024,-0.001323749827938708,-0.011123735776431115,-0.002488361753762456
2.0566666666666666,-0.978500913734153,-0.1960849036785671,93.02094321596547,0.00020083794762762423,-0.012978801670744828,-0.004107903699376342
2.06,-0.9726244620979956,-0.18372381755743836,92.84951673595985,0.0010430086763856445,-0.00915647947313021,-0.0005669616043212654
2.0633333333333335,-0.979658007822534,-0.19696325085242322,92.63335122994286,-0.0004613832997978588,-0.009444972147122664,-0.00012692564941459877
2.066666666666667,-0.9749444182696437,-0.186117361811964,92.41962576791164,0.0013522532836145104,-0.008768953829497309,0.0057874960016505
2.07,-0.9790772472820779,-0.18850621648252266,92.20786094764081,-0.001759613827759416,-0.007429234901671504,-1.7522444567377502e-05
2.0733333333333333,-0.9812679049792314,-0.18337621044741026,91.98557807779044,-0.00022807603546850667,-0.006554587917990426,0.0017885528403858721
2.0766666666666667,-0.9846678156945781,-0.18932813253268727,91.78488916033638,0.001977477156794031,-0.011296045605204592,-0.0035588718519714026
2.08,-0.9851899003410485,-0.18752362808889825,91.58198337543729,-0.00080022360083192,-0.006700661556049343,0.001971716981261747
2.0833333333333335,-0.9744121964068018,-0.18300698364256338,91.33924039461543,0.0019419263374728958,-0.007758250018310091,0.00024828574695982944
2.086666666666667,-0.9766236924421857,-0.1836411258798109,91.10965960100924,0.00022693964667613316,-0.006875942449848064,-0.0016673206682289176
2.09,-0.9636874897063191,-0.17786786775012126,90.87704652364219,0.0006124054494659047,-0.003734580611622822,-0.0005349296671417749
2.0933333333333333,-0.967208950427768,-0.17244610383125308,90.64032563765836,0.0009476959842116582,-0.004764361591266287,0.00012596012376412565
2.0966666666666667,-0.9550678584891263,-0.17180276525094337,90.40652621853607,-0.0012089908932120903,-0.005326110370997828,-0.0016729048476864699
2.1,-0.956278855067996,-0.1719362914280615,90.17346307223434,-0.00033117998871986864,-0.005045433980056533,0.0013918415620050033
2.1033333333333335,-0.9454385603018564,-0.1647864160786277,89.91790941204876,-0.002973649172345262,-0.007397497278225614,-0.002312679645350046
2.106666666666667,-0.9488493443694,-0.15919565523221063,89.68596982549587,-0.0022831318484573034,-0.007468608629133637,0.002689110000348738
2.11,-0.9420754261233493,-0.1514271123926558,89.44027779724324,-0.0013073109865320148,-0.005682045861807217,-0.0016120575982153246
2.1133333333333333,-0.935700685708,-0.15813469931623592,89.19062354146708,-0.00017550479066363032,-0.004037312161419668,-0.000265969438352144
2.1166666666666667,-0.9330854108385912,-0.14495221051000978,88.95975719697586,-0.001562282228464066,-0.00860219998400661,0.00023820984025070525
2.12,-0.9308671972690249,-0.15074133064872805,88.70929874856463,-0.001078179355123856,-0.004772860035339302,-0.001953818151542003
2.1233333333333335,-0.9184384656357268,-0.14954843935445922,88.46881217578729,-0.003921165427311285,-0.002579015459304994,0.00038330712979023346
2.126666666666667,-0.9139124230362355,-0.13521802843940203,88.22336484882906,-0.00468332163326791,-0.004215731371866382,-0.0013553488362246808
2.13,-0.9084192284997719,-0.13369528776105144,87.98803626838613,-0.001632172956272773,-0.0018603017819485413,0.001982444469936243
2.1333333333333333,-0.9077212955640173,-0.13489107797987587,87.74997896424468,0.0006121332287369867,-0.003730922502058089,-0.0006242800448434846
2.1366666666666667,-0.9088192369905732,-0.1270630128429075,87.51892262022949,-0.0001646564406178289,-0.005645328269895662,0.0005023448083678602
2.14,-0.8835437117575551,-0.13537432762571625,87.27084077420643,-0.0009027695570882499,-0.006497514960289573,0.0018199982273299697
2.1433333333333335,-0.8848408166881258,-0.1196669107930391,87.05247907759194,-0.00023684936567474387,-0.0021977615878609473,0.0017043880789481757
2.146666666666667,-0.8835446435160531,-0.1203883772363957,86.83066215640761,-0.0011427966858366168,-0.0016108473387711373,-0.0010479214856090587
2.15,-0.8711767707552309,-0.11380796149266162,86.6127820267239,-0.002027335862895344,-0.003845216399001264,0.0005751320349008481
2.1533333333333333,-0.8696692965698752,-0.11837840602130699,86.39681082477794,-0.0003566049431162297,-0.00019546117917548528,-0.0030248977734863023
2.1566666666666667,-0.8653280390761764,-0.12251390319469217,86.18347068568767,-0.00303593930590196,-0.0025230449975618325,-0.0016664121794113746
2.16,-0.866717410231472,-0.10866993113202264,85.97285247033135,-0.0013965523090380839,-0.007515591886190854,-0.00038097703418398936
2.1633333333333336,-0.8622624102208948,-0.1080376284889104,85.75214621159435,-0.002768234222495766,-0.005910457315629132,-0.0004346801218160139
2.166666666666667,-0.8535688712423942,-0.10202815995825877,85.56300629195917,0.002144794575028734,-0.005661196985269094,0.0006726681082328694
2.17,-0.8481426061786179,-0.10143379974343981,85.34417152336587,-0.0002752897059058954,-0.004306098318499728,0.0034084326413177032
2.1733333333333333,-0.8503248359506912,-0.09962790727271906,85.14702228625838,-0.0010656131512175172,-0.005970582429060792,0.0009234392643878399
2.1766666666666667,-0.8404112973011927,-0.10546821139476413,84.93030701048326,0.0028609092879620587,-0.00446928457401238,0.0016966857424404642
2.18,-0.8378424403379175,-0.10630467283464132,84.72724780488058,-0.001532765359600054,-0.005975221261098708,-0.002106969862432622
2.1833333333333336,-0.843036245909809,-0.10062184565408439,84.52076810595088,-0.0001813621334818714,-0.007259935569434359,-0.0020591660453779526
2.186666666666667,-0.8507494085126249,-0.09403271490371082,84.31846273804757,-0.0024382987914984317,-0.008684412824121397,-0.0020199831805129604
2.19,-0.835680734152059,-0.09886210312624404,84.12410378681393,-0.0011597308785506262,-0.008131089990638388,0.0027957006596210153
2.1933333333333334,-0.8443900520389066,-0.11294609703785251,83.91419188418669,-0.0034729674151240918,-0.00861304915221249,-0.001607458741925818
2.1966666666666668,-0.8539272976153777,-0.10769057021473952,83.71191318337361,0.003151562678749343,-0.008709873964937963,1.747303870854109e-05
2.2,-0.8415710008516759,-0.09984385754773419,83.51370635509167,0.002828571795925884,-0.005696249158403709,-0.0033217386457053827
2.2033333333333336,-0.8599166429659792,-0.1064956328347021,83.31128275133405,0.0023132373700565333,-0.004633288236944629,-0.0013788391707765762
2.206666666666667,-0.8516164744999686,-0.11520569351934273,83.11423199084618,-0.00185290487163308,-0.008360614497557824,-0.0013173427345895513
2.21,-0.8516566215531726,-0.1011467384429829,82.91155006884486,-0.0031801524625001713,-0.012752051699349731,0.001106884774045246
2.2133333333333334,-0.8590509508549251,-0.10740826888985404,82.72980302846099,-0.0007567485960968107,-0.007437981436041633,0.0016429508459574868
2.216666666666667,-0.8604606661042377,-0.1081082500114272,82.52910893404427,-0.0018645589037381946,-0.007267173080881846,-0.0006018344297070151
2.22,-0.8677614109226691,-0.11067962892644123,82.32926383607511,-0.0031697728146854957,-0.00864584815175368,-0.0011511035416029687
2.2233333333333336,-0.8729860418504067,-0.10556439344920496,82.139274802881,0.0032107876146627995,-0.007117754169296664,-0.0041684749336066374
2.226666666666667,-0.8704430301837016,-0.1227055362797194,81.94784920399752,0.0009009742797713962,-0.010614942693001027,-0.00035913006954421054
2.23,-0.879609282558729,-0.12611935267374907,81.75440751678434,-0.001052839013809496,-0.008153787169409432,-0.0023247307170534085
2.2333333333333334,-0.8870369987262141,-0.13121785463783697,81.5593272091651,0.0029311126328856255,-0.008737311862777687,0.0009452510639854993
2.236666666666667,-0.8846335062120281,-0.12863156101240744,81.36548367764435,0.0009363909204440435,-0.011628741340075391,0.0014869309850376118
2.24,-0.8902341323555784,-0.12106617564546214,81.17517506264556,0.0032282681540335757,-0.01463910031105426,-0.00010991000087141895
2.2433333333333336,-0.899626600895311,-0.13069678828730363,80.98866700357225,3.568715967960874e-05,-0.01246881955456727,-0.0007557868504422557
2.2466666666666666,-0.9171748593520304,-0.1352448486075981,80.8044009823197,0.002800720984860098,-0.009252322040969384,0.001514138744820673
2.25,-0.9023428963082172,-0.1346042761225964,80.61062674813405,0.00032212481546336255,-0.008463870206761023,0.0014302333875493
2.2533333333333334,-0.9086053616537267,-0.13888643790752161,80.43333052588733,0.0015856360949252533,-0.011750477484658047,-0.0001721307079453037
2.256666666666667,-0.9145347983890805,-0.14228501116059594,80.25038388441519,0.002350193134221348,-0.009145022713281674,0.0007155828135468678
2.2600000000000002,-0.9179019980796613,-0.1364342516396543,80.06321365873596,0.0012360695303472737,-0.010594333547368537,-0.0018685112226722116
2.2633333333333336,-0.9146416819961045,-0.14943789845875843,79.87706821628208,0.0031681253760814285,-0.011417212709085148,-0.001460134082288572
2.2666666666666666,-0.9218473453656615,-0.14432766180733445,79.71843674736883,0.000958410900372429,-0.007041484876067112,-0.0009937128965301636
2.27,-0.9363924608417001,-0.1432267089371309,79.54951335587782,0.0018082457462427351,-0.009799398087409943,0.0006814325825255824
2.2733333333333334,-0.9278072597896138,-0.146572519196296,79.38029167475312,-0.0009664869916486146,-0.012362834674898841,0.0007031740999823502
2.276666666666667,-0.9351458223882074,-0.14955617962490692,79.2265768917382,0.0001280702099211972,-0.009311915779534411,-0.0007190365583611149
2.2800000000000002,-0.9315378682572956,-0.14794105674034433,79.06277015038033,-0.0010745140988269208,-0.009538428425206717,-0.00038173911970422247
2.2833333333333337,-0.9502211240129483,-0.1576367441477724,78.91020984471066,0.0015273422403372491,-0.012366223624514765,0.0016520593135658833
2.2866666666666666,-0.9387529688596008,-0.15272246227699904,78.76081392279286,0.0011960258220838286,-0.00939237674271486,-0.0012506177010175954
2.29,-0.9551816445639247,-0.15797896397303593,78.6208717975995,-0.0017257840704075044,-0.009135467947228505,-0.0014012537317518406
2.2933333333333334,-0.9571231380031195,-0.16594600092668416,78.46944572894311,-0.002983916991506123,-0.00838546803408357,-0.0012859579943851791
2.296666666666667,-0.9536548294271043,-0.16228884458968537,78.33288976984718,0.002138799578212214,-0.00938817055761314,-0.002184225319600428
2.3000000000000003,-0.9470127213937706,-0.15355439458445028,78.17695735266184,-0.0011903032113457425,-0.007255263454481366,-0.0011850097298884868
2.3033333333333337,-0.9574111660844871,-0.15128262069119425,78.02201177796537,0.0024624633891850403,-0.011580103410010215,-0.002289555502353451
2.3066666666666666,-0.9626572804286024,-0.14720854027004898,77.85110075556395,-0.00032089849715097356,-0.010023200688734217,0.002864002804857464
2.31,-0.9565435898971227,-0.1645603420694542,77.69699284514942,0.0014644805003568193,-0.00818293557905335,0.0044073414596247
2.3133333333333335,-0.955592588527462,-0.15479539450003793,77.52892657217194,0.00044680454781436416,-0.009598260626796216,0.00048775453507094585
2.316666666666667,-0.9555997326035699,-0.1610760490724521,77.37043706618567,0.0008516841724797079,-0.010246378563359176,0.000891741130672245
2.32,-0.9567835018222888,-0.15590230646181824,77.20064453287631,0.001933241236532581,-0.0067412179289240174,0.0007253688683949429
2.3233333333333337,-0.9582662868039065,-0.15249237057562262,76.99222625059022,-0.0004266820237501884,-0.00785428366320841,0.00046167553396886965
2.3266666666666667,-0.9450232159049181,-0.15526919018286803,76.77963831677853,0.00030028036564682374,-0.006088685458450876,-0.0010133285938089638
2.33,-0.9465365314830789,-0.1521308356335478,76.56534745417684,0.0012248554109226192,-0.004834897881689686,-0.0005940553382320855
2.3333333333333335,-0.9495947943863896,-0.15016246718130066,76.3560371390212,0.0016021898392313623,-0.008947578076110341,0.0003927822047267204
2.336666666666667,-0.9523292730959767,-0.15114061517213961,76.13975071009227,0.0024504590886692346,-0.008939332399491417,-0.0006727089006755726
2.34,-0.949644096727674,-0.13765060213866212,75.92359725943108,-0.002804980680905523,-0.009849260863646188,0.0006239811816710379
2.3433333333333333,-0.945612591186732,-0.1358969921032452,75.729312352638,-0.0008909640029502715,-0.005330628932641902,-0.002513510375681259
2.3466666666666667,-0.9470553722245688,-0.1430271747292861,75.51522409230084,-0.0017859086587584678,-0.00393839629328993,0.0017144376845167216
2.35,-0.9407073085553901,-0.14759053275273598,75.29230814844065,0.0003749946939841075,-0.00720051379570167,0.0017081039098846762
2.3533333333333335,-0.9414079114919841,-0.1471231899846753,75.0856442784611,0.0012835506875883953,-0.006050279842405856,0.0006589895217586242
2.356666666666667,-0.9391260332572906,-0.13287789841980982,74.8663188835881,-0.0023239438280291164,-0.001754983976892499,0.0018193395766925525
2.36,-0.9331647887385953,-0.14146147099423362,74.6569796731454,0.0013110527940721761,-0.0034120746484284465,-0.00015532041778055703
2.3633333333333333,-0.9279936245056156,-0.13628931220482993,74.93132743359158,-0.0009160431404914461,-0.006091802212565281,-0.0008501702527807629
2.3666666666666667,-0.9235008335568884,-0.13162462614854134,75.3529348613698,-0.0010698512041740968,-0.008073698844408858,0.0012687564627245614
2.37,-0.9243507596949831,-0.12861280871589703,75.77884340322679,0.0006397726349961204,-0.009099612002848523,-0.0006403012590224876
2.3733333333333335,-0.9211333476251209,-0.13484915877218745,76.19164530060091,0.001481467360777077,-0.005923648474046544,0.0008444932498462824
2.376666666666667,-0.9278353160687647,-0.12532376999270775,76.6224360087009,4.020895122936331e-05,-0.007066350218981437,0.0014708762630612565
2.38,-0.9198303133486816,-0.12341742818772473,77.03695475792557,-0.0009636291621560651,-0.008993270680499705,-0.00018340147087601944
2.3833333333333333,-0.9149882210900386,-0.12306554883204365,77.08659626146526,-0.0026372334096222277,-0.005866379987018874,0.002512789545709138
2.3866666666666667,-0.9212232797326922,-0.1224713714478011,77.0128170629272,-0.00012242052760784035,-0.007162114221525953,0.002103995598786598
2.39,-0.9199491351503482,-0.12543460279989188,76.95666408714413,-0.0022388701362826666,-0.007419672609365978,0.0027546525403351375
2.3933333333333335,-0.9153156534706213,-0.12681737370864207,76.87922075071506,0.00024183099512993652,-0.002987954771798425,0.0022574856823373056
2.396666666666667,-0.9193056303832875,-0.12294396929206577,76.81420304463339,-0.0011113727163867104,-0.0075596514417380235,0.003426213431876576
2.4,-0.9112779422652172,-0.1169052239487673,76.73395884124511,0.0016007764717652763,-0.00591748831164128,9.923746494068651e-05
2.4033333333333333,-0.9120255018484152,-0.12123021923739236,75.69664476155236,-0.0010433206843287303,-0.008426437063661233,-0.0027801224584086365
2.4066666666666667,-0.9115164841412426,-0.11946254229049669,74.36557814559806,-0.0021252729872039814,-0.008610772802558734,-0.00026402952685907047
2.41,-0.91713601095326,-0.12684852012075293,73.03564578724647,0.0009734690898211514,-0.007975581323879695,0.0024437768838398316
2.4133333333333336,-0.9104646307160855,-0.1264150367561808,71.72249618794018,-0.0018736524427932237,-0.011412242019921416,-0.0015716283944664097
2.416666666666667,-0.9123099468090706,-0.12032492972899864,70.3765931039848,0.0017179885993839098,-0.008599925979765076,0.004050167943377412
2.42,-0.9187795523179357,-0.1170959561880104,69.05810695329075,0.0010933320876282686,-0.007986838378035006,-5.827519753410427e-05
2.4233333333333333,-0.9124798439194264,-0.12375731532943746,67.52997491128694,0.002739780348682431,-0.009381955533682693,0.0007914105612955892
2.4266666666666667,-0.928855375139546,-0.11932577562848638,65.92835342532564,-0.0038378031750205036,-0.005404740620046887,0.0011157895371789075
2.43,-0.917863916765137,-0.13013741091962103,64.32827404523611,0.0009193176563344155,-0.008493281850617741,-1.0914480378138244e-05
2.4333333333333336,-0.9213036254164172,-0.12393909990895251,62.72646486898656,0.0023815138156728427,-0.007069820201829417,-0.0010115033981096305
2.436666666666667,-0.9161090516018384,-0.12917108120083295,61.13307064814684,0.0030124688028291967,-0.007270816382939957,-0.0005124287487575663
2.44,-0.9222874043436409,-0.12488355572474673,59.5294418572019,-0.0021702771427361766,-0.007278057381575697,0.001894658997947064
2.4433333333333334,-0.9137116593306616,-0.13059641585936804,57.39179249182926,-0.0026562303951206128,-0.008846851071023105,0.0006406947677124985
2.4466666666666668,-0.9176346886194555,-0.11644552721872896,55.08708447203789,0.0011790474744541443,-0.010998156135277,-0.0030854663099500754
2.45,-0.93840676602398,-0.12524387401873768,52.77300401080438,-0.0006812308801491121,-0.009300284127280409,-0.0002231075297815507
2.4533333333333336,-0.9379142271398301,-0.1262596447308746,50.47577565659117,0.00041244420659899825,-0.00911661917653221,-0.0011285004196795675
2.456666666666667,-0.944928205561762,-0.12951898134173187,48.18197575083865,0.000689464501221839,-0.008136357397130712,-0.0028785896899417977
2.46,-0.9505846038032231,-0.12948384221790568,45.87445503201197,-0.00018799349313053734,-0.007288721972704606,0.0010725906132558198
2.4633333333333334,-0.9603655345873727,-0.13359661302912354,43.97054358218394,0.0003733771450861393,-0.010400609346435863,0.004065438016501493
2.466666666666667,-0.9577270096708075,-0.12916085283663467,42.19429753920269,-0.0004269267277167602,-0.010255944197456545,0.0035907833961943457
2.47,-0.96774255056624,-0.12518358171806132,40.42335066430986,0.001255166051424004,-0.011830814375589829,0.0005669321358572411
2.4733333333333336,-0.971248412438542,-0.12777620436639822,38.63599501523137,-0.0002875732986262804,-0.010636442856224476,0.004224672992340791
2.476666666666667,-0.9870793323740079,-0.13454629776743982,36.87072967151359,-0.0005898119354923977,-0.01276144868295978,-0.0005452688985185981
2.48,-0.9751550654428712,-0.1320723841041992,35.09035563433254,0.0016671067064200525,-0.011299027934945641,0.0003386366218283653
2.4833333333333334,-0.9754183546185514,-0.13793536400637887,34.29075855492333,0.0008257803449602274,-0.008802618710310938,0.001535592211308867
2.486666666666667,-0.9895570675824572,-0.1372422441764505,33.78413283523438,7.527939814900452e-05,-0.0073942237906024786,-0.00203936333530753
2.49,-0.976888209065417,-0.13579452937957173,33.2782144191862,0.0021037209478545816,-0.005953335162352437,-0.001578554010253834
2.4933333333333336,-0.9882700786701362,-0.12945950532548506,32.78007200362568,0.0001859946055217769,-0.007606858939847065,-0.002561910576246207
2.496666666666667,-0.9832808066272909,-0.1348552401944308,32.26963605575906,0.0017241407318247179,-0.007113665683607222,9.056833130553083e-07
2.5,-0.9851875663946461,-0.13841113467828314,31.76478123198965,0.0014434957712925337,-0.005649667164930245,0.0003895412807883052
2.5033333333333334,-0.995419673454878,-0.1399137412645158,31.49767139278216,-0.0005987850037843272,-0.007813375303716253,1.5791805704012997e-06
2.506666666666667,-0.9819155875221313,-0.1345870590374062,31.29918818542059,0.0002504371296023957,-0.0046211782208954635,0.0006697340139254965
2.5100000000000002,-0.989241083969333,-0.13823174078504605,31.09713403492435,0.0005785002824267628,-0.006390242304007999,0.0010747737073608207
2.5133333333333336,-0.9780503690964175,-0.13552781200871877,30.90309639364963,0.0009656149850631961,-0.008742284292188419,0.0008682159122382871
2.5166666666666666,-0.9908239172194409,-0.14620570644619563,30.694154022266016,0.0013447759458866818,-0.005310666251362407,0.0007468059206980555
2.52,-0.9830455797873812,-0.1467749292585736,30.507636706129425,-0.0016395579238155295,-0.008094743404690718,-0.0008265157378322394
2.5233333333333334,-0.9814127817496091,-0.1433797567059733,30.36089455395773,0.0002755988471394566,-0.0032375767931151814,-6.500793936332753e-05
2.526666666666667,-0.9888110390090264,-0.14053343356951736,30.211831319667986,0.0006637927289066877,-0.005741024009027788,0.0013439591128355402
2.5300000000000002,-0.9803659378772022,-0.1353035859624287,30.085093879082876,-0.0014233427506468205,-0.006500977331146769,0.0005128804638650369
2.5333333333333337,-0.9827346504790029,-0.12233100611520276,29.956676734124333,0.00048488258224592336,-0.005906022205604505,-0.0019335010092420585
2.5366666666666666,-0.9778015107179145,-0.13609223469829151,29.825934163845908,0.0027484079872494506,-0.0037297309879015437,-0.0008459073907157725
2.54,-0.9793865613363429,-0.14767583800026288,29.676819215364823,0.0038224335165501708,-0.005420106140440778,0.000298908670149587
2.5433333333333334,-0.9762012584649588,-0.13118262561279545,29.54549925314402,0.002303884068197968,-0.007218129814185439,0.0012446762343966825
2.546666666666667,-0.9803128891535579,-0.13555202476174388,29.405198319388063,0.0017160689057405297,-0.004903566314406091,-0.0006257177057157663
2.5500000000000003,-0.9681763058184003,-0.13684370925365422,29.271400417104743,0.0014686581439363477,-0.005859472647630099,-0.0006961752141839994
2.5533333333333337,-0.9727684749581909,-0.1371166633343618,29.13881084815082,0.0031057246834348524,-0.007692074072548132,-0.002356693242650853
2.5566666666666666,-0.9692596084355697,-0.13008221194173206,29.01366515721527,0.0002103762672959708,-0.0038484545215362416,0.0028786196077711726
2.56,-0.9604943311267727,-0.13664331909375096,28.864962002366585,-0.000848247067410397,-0.002778460000129569,0.00176416742697216
2.5633333333333335,-0.9589494229390039,-0.13489275929891664,28.780219107570385,-0.0014202725437613283,-0.007647497447432627,0.0009557579018874526
2.566666666666667,-0.9552016915285211,-0.1306042962673986,28.688072612981035,0.00039278539944326496,-0.002718879244109652,0.0011740769284174614
2.57,-0.9580213774340842,-0.13740678281964158,28.60539718453729,-0.002214803041879847,-0.0057549424832260155,-0.002192609835657521
2.5733333333333337,-0.954756352124443,-0.1430082201457838,28.51244829722939,0.003584029749063869,-0.004242830599424381,-0.0026526127604670964
2.5766666666666667,-0.9437237822655374,-0.13000272322043013,28.430660433888054,-0.0017615575357102316,-0.0029957690376659065,-0.0036436139688207636
2.58,-0.9446400051276751,-0.1360989484495626,28.334463260646068,0.005365131256277548,-0.004972364027373,-0.002008614060685678
2.5833333333333335,-0.9494267615457043,-0.14611318533894804,28.218540668412967,-9.102478643583278e-05,-0.004856991874821093,-0.0006537331584052617
2.586666666666667,-0.9528983620550564,-0.13509584116624002,28.09138579805955,0.0006100761374357198,-0.004639933732128149,0.00506446480125928
2.59,-0.9474613125399889,-0.13347909041399317,27.97444617035041,0.0023840772789868,-0.006344300896274434,0.001523843932220008
2.5933333333333337,-0.9484697468663208,-0.13754436784804677,27.852702140003515,0.000606597568318745,-0.007069910495739734,-0.0015948454423825645
2.5966666666666667,-0.9488483485900377,-0.1334680067282054,27.716222562480205,-0.0028372326606451812,-0.0037156082404605044,-0.0023406284298623328
2.6,-0.9497527597493336,-0.13995403730789788,27.587357110922557,0.0006594608558397705,-0.007805239503644385,-0.0007914971689841424
2.6033333333333335,-0.9439018264226904,-0.1269438522114169,27.44734423092161,0.0024702761187254335,-0.006306416939804598,0.002133091798051986
2.606666666666667,-0.9386551429262198,-0.13382548139019462,27.323939571147427,-0.00131219284249832,-0.005809583961412615,0.0019968078204517068
2.61,-0.9479895823373432,-0.13548345852873395,27.182378892554265,0.0021068718467596678,-0.006914840510630446,0.00029711973117867824
2.6133333333333333,-0.9427050482860011,-0.13476191376592098,27.04780158141495,-0.0006581101503695932,-0.0069112132410812455,-0.0028479232219638245
2.6166666666666667,-0.9448920092598034,-0.1374788334116098,26.908675730206223,0.0009376216972775834,-0.007547737746158666,0.00025382550203571796
2.62,-0.9485661447031888,-0.1341507761708735,25.346581985252985,0.0006402710873908081,-0.008557163892941118,-0.003650250023173139
2.6233333333333335,-0.9571087165730414,-0.12508334656028702,26.64686656558063,-0.0016138412849154276,-0.005041336944761875,0.0014195589631290219
2.626666666666667,-0.9560399796751085,-0.1321838177204408,26.508299621003975,-0.0013761136681563746,-0.009442721570163575,0.0012752888241757715
2.63,-0.9539273996311373,-0.13169315115538296,26.398211819057508,-9.96703019734952e-05,-0.008911908512851695,-0.0012465763733844767
2.6333333333333333,-0.9519226921395452,-0.12989907688352442,26.256901084963683,0.002444361326420131,-0.008296418672831625,-0.0018219093690862692
2.6366666666666667,-0.9576677556260268,-0.12903271545105932,26.14049531818197,-0.00012990709296318317,-0.006010634186945046,-0.0010760512356328186
2.64,-0.9576902963034352,-0.13337188630138463,26.01305894685557,0.0023010837285015137,-0.007490529825964189,-0.0011296692324222228
2.6433333333333335,-0.9615391748669323,-0.14004630758702682,25.885212954421927,-0.0011318025017707125,-0.006454865363430389,-0.0025847059473823445
2.646666666666667,-0.9652304834380043,-0.13548476511029864,25.760627388158365,-0.0033598629570883326,-0.005637211179514899,0.0016219771736334665
2.65,-0.9674641044244588,-0.14516045008180842,25.6303034286984,0.0003529453349020258,-0.006017526630218978,-0.0014435062939400997
2.6533333333333333,-0.9607889817281695,-0.13922972786335913,25.50075592504235,0.002407364027841817,-0.007767730146308904,-0.0023452067187027057
2.6566666666666667,-0.9689550038098109,-0.12904844918758435,25.371191118015524,0.0009473212244397815,-0.005664656639783866,-0.002036928280022851
2.66,-0.9680066349224304,-0.13538559051809,25.254204255580937,-0.0005665597203893082,-0.007530362061050117,-0.0006125175615478642
2.6633333333333336,-0.9795011954393942,-0.12690035636412805,25.144620248707337,-0.0016320898932440514,-0.008009924189804637,-0.0005940225980498414
2.666666666666667,-0.9783202010739418,-0.13090840841848955,25.02629451971824,-0.002474126790027072,-0.006055761945892778,-0.0007085152658020144
2.67,-0.9776520935283738,-0.13117452453788103,24.9337585167288,0.0010424890984064915,-0.0051289822350084,0.0002018698422055035
2.6733333333333333,-0.9743848374930543,-0.12638889458802557,24.818048606279746,-0.0010139424302454284,-0.007473238331828545,0.002021950476840767
2.6766666666666667,-0.9942346856739633,-0.12135368167336592,24.706229262492958,-0.0011951862856991813,-0.008402377327548708,0.0011931595089318319
2.68,-0.9746675974716371,-0.13424391183108195,24.593149566476647,0.0020506434209750044,-0.005856301420064317,0.0015636873025168974
2.6833333333333336,-0.9802393322805293,-0.13114950244610152,24.507982054272425,-0.0008964769314936253,-0.005046623085842667,-0.001055181022408725
2.686666666666667,-0.9828871500448289,-0.12496059431372183,24.39610212954852,0.00018348765456757226,-0.003801266950871675,-0.0008456283036961418
2.69,-0.9995009357703599,-0.14058866698540773,24.306892775388455,0.0016186182567934269,-0.007532176281412976,0.0007993918105541193
2.6933333333333334,-0.9928872612236995,-0.1271132786983165,24.20966311385829,0.000588864356899386,-0.009728095010345569,-0.0027592138308827783
2.6966666666666668,-0.9898046964158478,-0.12957141747906734,24.11093376573126,0.001776992877364657,-0.005549614564931778,0.0009179254652873949
2.7,-0.9863550393744108,-0.1406668555426015,24.004318781885903,0.0008097778702513884,-0.0076796215582275226,0.00047659277270656786
2.7033333333333336,-0.9939256015572204,-0.12412151392211947,23.899389204506935,-0.000933709818877439,-0.0050807529229375805,0.001556944802729271
2.706666666666667,-0.9956114013807335,-0.13487257957073165,23.808523544496964,0.002764875753982246,-0.007096994588728064,-0.00017984141845362033
2.71,-0.9849748590333676,-0.13325082377426872,23.713301552167145,-0.0008757837727914967,-0.007512059944943128,0.0017413061802738614
2.7133333333333334,-0.9871637378001688,-0.13781438673511592,23.613892707258675,0.00044350868215481886,-0.008748131986560088,0.0011819153725348595
2.716666666666667,-0.9957144351243707,-0.1374233473695426,23.51841457666503,-0.0006619219007275122,-0.008675258613907746,-0.0013091590510927152
2.72,-0.987032281376639,-0.1310939089753023,23.42697847085249,-0.0018707119242902506,-0.00647490971122331,-0.002957668663474957
2.7233333333333336,-0.9997812816011911,-0.13692529042746449,23.313815995621574,0.0019572252435565984,-0.006905236547013863,0.002740621306150956
2.726666666666667,-0.9859193153726916,-0.13206623403614068,23.211033246798774,-0.0019411774715141178,-0.005067527264521612,0.0014541205567249818
2.73,-0.9831195966832806,-0.1362893040426959,23.13034514157071,0.0031671247908618802,-0.005987859659522804,-0.00012318903673670716
2.7333333333333334,-0.9898979884862722,-0.13277672920508576,23.02254911534197,0.0038820607759841035,-0.005479455456659697,-0.001602162895857961
2.736666666666667,-0.9951268281524466,-0.12918206905728588,22.925444682827443,0.0005772585662508038,-0.010440821598002956,-0.004161668055060053
2.74,-0.9834334356329945,-0.13460652908475604,22.825349892337403,0.0017261923966871238,-0.00786454497448526,-0.0007950384819219361
2.7433333333333336,-0.9840081910855836,-0.13151538357533432,22.725295825766683,0.0012665939712820846,-0.00809501269719136,-0.0017401041374140156
2.746666666666667,-0.9865978541010123,-0.13913889341689165,22.633063243864804,-0.0039852290632632435,-0.005354859736069818,-0.0014724553532563214
2.75,-0.9791232479441837,-0.1424387168095802,22.540570572953715,0.0003572993635785508,-0.009959056712656535,0.0021913588586414167
2.7533333333333334,-0.982500120712843,-0.141784113008754,22.441716573192956,0.004980411235883269,-0.004771666747804533,0.0006574717391168293
2.756666666666667,-0.9835770646191948,-0.13521102422908515,22.354428773166795,0.000430098596074853,-0.005445187642255199,-0.0006182477011566916
2.7600000000000002,-0.9968986942583202,-0.13333443163402248,22.24487368643128,-0.00024375426681082105,-0.006871629168710804,0.0009086124719845098
2.7633333333333336,-0.9778839695569939,-0.13423498178156001,22.160443641737285,0.0005292569301086886,-0.007962326958422515,0.0022194524824719164
2.766666666666667,-0.9919846335296403,-0.14354849754368595,22.06686215595023,0.002149688446343194,-0.006035188720961377,-0.0013256348986126763
2.77,-0.9828834832112755,-0.12275291547182621,21.96951749223075,0.002019783813487878,-0.0060147671138055785,0.0026686973362416203
2.7733333333333334,-0.9846595338133903,-0.12718038529299822,21.870570536888092,0.0007410214116399859,-0.0062604907185440355,-0.0012172204270770885
2.776666666666667,-0.9778109471976454,-0.12732200644604763,21.777518061408156,0.0024915751082384406,-0.006309487583645775,0.0010493534994589291
2.7800000000000002,-0.9849218300487083,-0.1367872953356858,21.682084083752134,-0.003081441168093246,-0.004695074087363383,0.0011193280862090865
2.7833333333333337,-0.9846099188203291,-0.13247208979234848,21.597113421294996,0.0008996192564840332,-0.00815226318291136,0.00014935079189877458
2.7866666666666666,-0.9929283919605768,-0.14097316371171056,21.50885310401724,0.0004927953921811126,-0.006497655289223187,0.0022783346072543006
2.79,-0.9847543562321165,-0.13082100676353609,21.42173588834597,-0.0033959569833268456,-0.004970668112631426,0.0004621512772449226
2.7933333333333334,-0.986138264493855,-0.1375915279370647,21.33808883903348,0.0023453019365764216,-0.009305858124455668,-0.0003711679376678187
2.796666666666667,-0.9791405487234287,-0.131282232342935,21.246077040695624,-0.000383634687060409,-0.006936899311765046,0.0025496594919799226
2.8000000000000003,-0.9812528503188891,-0.13172683944462374,21.161555055199898,0.0006455250116200237,-0.005221731229119906,-0.0006505899127104167
2.8033333333333337,-0.9878737622208352,-0.13742692926499822,21.081061580878895,-0.0008571093440150587,-0.0010282868234395776,0.0008929653995056622
2.8066666666666666,-0.9858318904669516,-0.1434134830252746,20.997289151063846,-0.0013589815213805611,-0.00875093624249504,0.0026310400081126254
2.81,-0.9873544286092976,-0.12911271874020938,20.91947066794056,0.00214481020559525,-0.0055870093181337455,-0.004030216950513074
2.8133333333333335,-0.9855727026357191,-0.13170775886380567,20.850136916556785,0.0017495789628292698,-0.006550231497033231,-0.002511025972469999
2.816666666666667,-0.9862471338007858,-0.1410395220174225,20.773326233415215,-0.0022415651154683086,-0.005420982921267803,0.0009066427010640697
2.82,-0.9966623882082339,-0.13461981131592385,20.68203609950591,0.002751407461953865,-0.004114118152442579,-0.0010259590890146974
2.8233333333333337,-0.9771729612604493,-0.13708901429638345,20.605785415914923,-0.0007459899226272897,-0.008935130185835888,-0.002454928475446235
2.8266666666666667,-0.9859011404864034,-0.1337354695929395,20.533566030960564,0.0006623784677760563,-0.0060017774262458015,0.0003866054662188297
2.83,-0.9885208068948501,-0.14074339444110526,20.449241765032376,-0.00022220778137060763,-0.0055336893592813526,3.465080837190319e-05
2.8333333333333335,-0.9843288893580919,-0.1308769987698898,20.383364903184244,-0.0009872522392281966,-0.004758947232163864,0.0012753053104439301
2.836666666666667,-0.9919039699478842,-0.1320849304544597,20.2806475600726,-0.002069900209204876,-0.006690727271574723,0.0019935675142719873
2.84,-0.9946452240825748,-0.12926626919038614,20.218804501458816,0.0013138976850650178,-0.005925560847553076,-0.0007642957223068604
2.8433333333333337,-0.9921268485559506,-0.13638743499440736,20.123456045860415,-0.0013817778569557317,-0.006419140300397062,-0.00038552369643817924
2.8466666666666667,-0.9962939435177526,-0.1332776721535426,20.073475662193328,0.0020669515094499345,-0.005152238031431489,0.0014100141957302207
2.85,-0.9991635884778185,-0.1266970045098027,19.99658876324985,-0.004684146024375222,-0.007757999895005118,0.002071628019034618
2.8533333333333335,-0.9968795715235127,-0.13753365652023772,19.934674070637588,0.00045490583814994314,-0.007269700463796038,0.0017113866353108082
2.856666666666667,-0.9951394115084642,-0.13633823477499618,19.863880260232925,0.003232878117970409,-0.004080737797889693,0.001292665994320284
